ventana  acc_x__mean  acc_x__var  acc_x__std  acc_x__skew  acc_x__kurtosis  acc_y__mean  acc_y__var  acc_y__std  acc_y__skew  acc_y__kurtosis  acc_z__mean  acc_z__var  acc_z__std  acc_z__skew  acc_z__kurtosis  gyro_x__mean  gyro_x__var  gyro_x__std  gyro_x__skew  gyro_x__kurtosis  gyro_y__mean  gyro_y__var  gyro_y__std  gyro_y__skew  gyro_y__kurtosis  gyro_z__mean  gyro_z__var  gyro_z__std  gyro_z__skew  gyro_z__kurtosis
1  -0,6154052734375  0,012234857678413398  0,11061129091739866  0,8621666093748375  -0,6944376025349182  0,0342919921875  0,0014847164392471316  0,03853201836456444  -0,793444391846391  -0,6355290862918075  0,62594482421875  0,00398975331187248  0,0631644940759639  -0,15046220750213551  -1,076896718300969  -3,838125  110,69578867187502  10,521206616727714  -0,528741056893576  -0,883937041102913  7,678125  119,11932617187499  10,914180050369106  0,9414644855055664  0,02896753399321561  16,98625  45,78762343750002  6,7666552622030345  -1,4911912656308888  1,1754727370379427
2  -0,58573974609375  0,2890534301936627  0,537636894375435  -1,0911884284669429  -0,18103677926007578  0,2069384765625  0,010902030205726627  0,10441278755845294  0,24008818889449143  -1,0763113286805894  1,80615966796875  0,4696811681449413  0,6853328885621507  0,03979169730238263  -1,3456670350020157  3,97875  672,2478296874999  25,927742471867848  -1,2152613877897096  0,9619493112098709  50,42  2043,1234437500004  45,200923040907035  -1,8515350688156789  3,2776532345015363  8,33  24,117584374999996  4,910965727328994  -0,11145060668002685  -0,9425384967076069
3  -1,7009765625  0,2488952982425689  0,49889407517284556  0,6353160504195844  -0,7301321966805485  0,09524169921875  0,008634322756528852  0,09292105658314939  -0,20998266653007208  -0,585007378307639  1,1117333984375  0,5960306062936784  0,7720301848332606  0,3556878082447731  -1,2045770249397012  -79,925625  153,95849179687497  12,408001120119025  -0,7726125854169459  -0,3322859535450857  -273,62875  2751,9480328125  52,45901288446534  1,1290974182231936  0,5151312811388542  -13,01375  719,4541859374999  26,82264315718158  0,9580923958472138  -0,6233656342015386
4  -0,1832958984375  0,058158761954307546  0,24116127789159592  0,15545039939082608  -0,981717564136563  0,07044189453125  0,009797111099958419  0,09898035714200278  0,2766124080145774  -0,5148136585140306  -0,03348388671875  0,00406705781817436  0,06377348836447917  0,34606818595701644  -1,2894128775303286  -16,86875  414,82105468750007  20,36715627394998  -0,25044103262358025  -0,9749552697024373  -94,318125  7836,300476171875  88,52288108829194  -0,39164687589564284  -1,321711861212432  -32,469375  395,136054296875  19,8780294369657  -0,17427155622285498  -1,441932090582933
5  -0,06397216796875  0,06769080454707149  0,2601745655268237  -0,3476781204375675  -1,3259044189205347  0,02929931640625  0,012534181469678883  0,11195615869472694  0,42166054379822904  -0,6808602641135519  0,12207763671875  0,0029164009749889385  0,05400371260375474  0,5031054557034009  1,0823604558923465  25,8425  191,17136562499994  13,82647336181573  -0,46188064311263843  -0,9370332642982131  77,51625  1079,9707515624996  32,86290844649176  0,6989960127637511  -0,39572590457712353  8,355  326,56631874999994  18,071146027576667  0,10966191048640073  -1,5375235384663413
6  -0,979296875  0,06958891510963436  0,26379710974465653  0,3663313497214417  -1,2501442841525088  0,19666015625  0,027793659543991062  0,16671430515702923  0,0982136893769423  -0,8692589568791917  1,0317236328125  0,19305807330608368  0,439383742651095  0,09577284160733682  -0,991412114151442  38,835  475,1300406250001  21,797477850086235  0,8622588852581756  0,17094323893732444  170,325  518,5405468749997  22,771485390176014  1,1140039228659158  0,27243506949857066  27,785625  549,2083011718746  23,435193644855477  1,2805887679806423  0,705161046081515
7  -1,05863525390625  0,07248675710558891  0,26923364779608977  -0,12230905828232652  -1,4495025918085807  0,01227294921875  0,0253766773402691  0,15930058800980335  -0,03190921501905281  -1,3161080139674326  1,73121337890625  0,08733691856265073  0,2955282026518801  0,4377398420338371  -0,9613169951517069  30,595625  423,36581679687464  20,5758551899277  0,3138279398770431  -0,9229214312177971  81,056875  3172,6211792968757  56,32602577225625  0,6720726071254916  -1,0524491219561216  2,20125  1928,6351234374995  43,91622847464818  -0,15641648892137147  -1,450165232704742
8  -0,04951904296875  0,028027141159772905  0,16741308538992078  -1,5486290942687075  1,897668678669059  0,21007080078125  0,0030071000754833222  0,0548370319718648  -0,280732118547279  -0,9724447140888866  1,0301513671875  0,012163171172142028  0,11028676789235428  0,9169434022634597  0,19725690636311333  -3,580625  85,68041367187499  9,256371517602078  1,2047647602160716  1,1449876649372008  16,260625  120,59625429687489  10,981632587956806  -1,2706665502353829  0,6729341624110288  -30,936875  126,57652304687501  11,250623229264901  0,08746427352451121  -0,4923622084392294
9  -0,899228515625  0,6453500582218173  0,8033368273780416  -0,23728874688039414  -1,5335862717700157  0,1350341796875  0,014558579325675978  0,12065893802647186  -0,06876601319495657  -1,5053978050894945  1,64708984375  0,31252514419555644  0,5590394835747797  -0,2584915283104646  -1,1952242014281946  -30,54  799,0462906249999  28,26740686064075  -0,5046147524776166  -0,8345295054346793  -39,8825  1849,23213125  43,00269911586946  -0,7799324465428482  0,25824518360446547  17,620625  200,00548867187499  14,142329676254722  -0,4849057083858955  -1,5225274029809563
10  -1,3749951171875  0,15147279856204987  0,38919506492509626  0,049556961783424114  -1,0215543499250566  -0,0339013671875  0,03326198580265047  0,18237868790692202  0,5238277481668561  1,1237701482112916  0,892900390625  0,39119857058525087  0,6254586881523438  0,07512528262635296  -1,1534811431877057  -35,831875  1943,4870855468748  44,084998418360804  -0,2902778339966151  -0,7817949481173057  -196,60875  1811,6889546875004  42,563939604875635  0,6267042956691696  -0,349211415690331  -24,490625  4023,871435546872  63,43399274479632  -0,5541896055336263  -0,11245351284169569
11  -0,0936376953125  0,12990447690486912  0,36042263650451967  -0,2776594974759601  -1,480969334761665  0,11742431640625  0,035841297453641896  0,18931797974213094  -0,0008578539610737515  -0,783669856481477  0,121728515625  0,019463272094726564  0,13951083146023668  -0,13425063696078238  -1,5108460358479403  3,485  1215,375634374999  34,86223794272248  -0,1794287746303665  -0,4509444446387625  -73,271875  4176,458466796871  64,62552488604538  -0,19301690937999946  -1,1696063482060273  -9,8575  486,90797500000014  22,06599136680698  -1,3273259962619517  0,6357472130558617
12  -0,248857421875  0,10349415526390074  0,32170507497380385  -0,35533145812311306  -1,2301802170675957  0,11345458984375  0,03450830494761468  0,18576411103228382  -0,31545736176382033  -0,7905934356575459  0,21885986328125  0,023660405129194255  0,1538193912651921  0,5263301656011122  -0,3031378367744466  23,58  216,87477187500008  14,726668729722961  -0,38064358166415563  -0,8679053350311716  62,25625  343,65777343750005  18,53800888546286  -0,5262742549050475  -0,9561682923291466  3,396875  482,1666699218751  21,958293875478464  0,5465488808924626  -0,05686289883155515
13  -0,79100341796875  0,013243943899869914  0,1150823353076827  0,044427843721402474  -0,6062900561441964  0,24443603515625  0,028878773802518833  0,1699375585399497  -0,6009669013050866  -0,7817566042372843  1,42255615234375  0,26361057793498033  0,5134302074624947  0,4580487169363654  -1,2349619594227692  36,260625  1180,998207421875  34,365654473934796  -0,1352526418905729  -0,272197803676709  106,803125  4790,079169921871  69,210397845424  0,031379190619889204  -1,421243574884493  28,0325  984,0294125000006  31,369243097339798  0,13586817422115735  -0,4347932857605801
14  -0,51947998046875  0,04076321398615836  0,20189901927983298  0,9567414256466752  0,048483262976707575  0,0861474609375  0,01333171370029449  0,11546304040815178  0,40899268289616203  1,0836385661318584  1,87041748046875  0,11135987026095397  0,3337062634427978  -0,9202146211646625  -0,02224894676667244  29,804375  371,7898167968751  19,281852006404236  -1,390182265519998  0,9499922553155926  106,814375  4174,565348046873  64,6108763912615  -0,14593626979534957  -1,1900319977598104  -21,69875  671,8624515624999  25,92030963477288  1,1646081182662342  -0,17282404146428787
15  0,2503369140625  0,035567573046684245  0,18859367180975148  -0,536894831856676  -0,5603848873889414  0,1845166015625  0,033002316451072704  0,18166539695570177  1,3765335406929828  0,5274315206391802  1,1365234375  0,15764594793319697  0,3970465311940113  1,7250319780956416  1,6713057412854102  5,114375  578,4751605468748  24,05151056684122  0,2927408654598256  -0,508686259944938  46,229375  195,738832421875  13,99066947725787  0,5236191646777459  -0,22943306861045265  -41,8725  233,34569687499993  15,275657003055546  -0,3914491880863889  -1,4947893689255076
16  -1,76438232421875  0,22864027869105347  0,47816344349087736  1,225459573401887  0,7491732343619586  0,26551025390625  0,03430136019587518  0,1852062639218101  -0,3577119177248588  -0,7033800951860649  2,0530078125  0,8585603836536407  0,9265853353327155  -0,022658121216135196  -1,5320577985286943  -37,449375  2306,2418511718756  48,02334693846188  -0,43564147286356986  -0,8710493284303835  -185,036875  8936,059538671874  94,5307333023069  0,14759165523529177  -1,0976777424352202  49,98125  1156,3162109374991  34,00464984288912  -0,602663663708943  -0,9523408442752066
17  -0,8080517578125  0,35074562380313873  0,5922378101769075  -0,30286567013492943  -0,9966911531339475  0,0988818359375  0,1230083739519118  0,35072549658088986  -1,1328832424678228  0,678915574377486  -0,00941650390625  0,05223206788897517  0,22854336106956852  1,3987900811735567  2,409072345692201  -22,425  6616,117734374995  81,33952135570381  -0,1598034736112952  -0,32470198908134096  -125,75  4064,624765625  63,754409773952105  -0,4576949444406501  -1,07486835044278  -40,324375  3884,0322417968778  62,32200447512  -1,9748487164455468  2,535604552409753
18  0,21330078125  0,010025520181655888  0,10012751960203492  -0,5246932823262395  -0,7688479702554312  0,0336376953125  0,012935993170738222  0,11373650764261325  -0,2601607021973753  -0,99672410038399  0,6372998046875  0,006537735199928284  0,08085626258941409  -0,9865040404408141  1,359223753142226  0,25625  108,8787890625  10,434499943097418  0,05542261664045427  -0,6445963507778774  -14,501875  1011,7743324218748  31,808400343649392  0,24809852979035527  -1,6318323995644621  -0,67875  94,0117984375  9,69596815369667  0,3093620060340371  -1,0867465106779588
19  -0,1390087890625  0,0519884333372116  0,22800972202345143  -0,7700527416461495  -0,4338712380495138  0,0293115234375  0,04300391175746917  0,20737384540358306  0,5596198943396821  -0,49343197989026955  0,2002099609375  0,09256385185718527  0,3042430802124927  -0,16118537439974118  -1,2992281074149528  6,85875  910,7934859375002  30,179355293602615  -0,9120720257974344  -0,27117051004591985  61,204375  1276,0627230468751  35,72202014229983  0,7356498336499423  -0,8304154502581973  3,785625  170,597598046875  13,061301544902598  -0,11771332603131676  -0,6914254001222657
20  -0,94581298828125  0,027316686362028123  0,16527760393358842  -0,26447639052922767  -0,7851263601156679  0,174931640625  0,059403308010101324  0,24372793850952199  -0,8988862871758377  -0,16885697635509977  1,48502197265625  0,1852292697131632  0,4303827014566956  -0,4552862048615664  -0,3074050199860072  -4,610625  1811,3478792968745  42,55993279243841  0,058860512141853505  -0,8658386231202049  117,633125  775,5048949218748  27,84788851819604  -0,3104323562894302  -0,7949522351424267  23,64  292,37665  17,099024825995194  -1,1071184672663994  0,6565156427494037
21  -0,69133544921875  0,011261432522535326  0,10611989692105495  -0,9750482643675451  -0,2806727342752682  -0,2149267578125  0,010140483641624447  0,10069996842911345  0,2632254614899752  -1,2276676006718414  1,256826171875  0,021464410924911505  0,14650737498471367  0,061398798202278816  -1,3581319713503843  20,630625  1716,4344605468746  41,429874010753096  -0,09033545059728319  -1,5552770394076014  95,67625  378,5618265625001  19,456665350529626  -0,19827012911482722  -1,2010192534466704  8,644375  485,6623199218752  22,037747614533462  -0,17011484698426754  -1,2742030421367605
22  -0,0295458984375  0,06057843325138096  0,24612686413998158  -0,8635499180398267  -0,6666607611439312  0,18727294921875  0,0043798032462596895  0,06618008194509652  -0,5128999091555068  -0,24438234291063266  1,30352294921875  0,016190078085660933  0,12724023768313597  -0,37033196075233443  -1,3760306565185048  32,54125  839,6232203124999  28,976252696173464  0,4342106993748702  -0,8700199876069212  42,05  386,42273437500006  19,657638067046612  0,9873809629492224  0,2522663608804572  -27,705625  183,49189804687495  13,545918132296347  -0,17645971451145703  0,13573792215202074
23  -1,30452392578125  0,6146803367793559  0,7840155207515702  0,43442547258290226  -1,4608027251635758  0,23128173828125  0,023906058138608938  0,15461584051645205  0,7383161709018171  -0,4405478683497117  2,268017578125  0,3425382792949676  0,5852676988310286  -0,2576647827489545  -1,438775075437702  -28,785  2310,2941656250005  48,065519508531274  -1,100799320804176  -0,3514361970707003  -147,669375  13802,88533554687  117,4856814064883  -0,25659555426739683  -1,535914212707391  35,83625  571,3489671875001  23,902907086534476  -0,18986753649284313  -1,438769903177006
24  -1,15342041015625  0,2830576218307017  0,5320315985265365  0,027089132734894147  -1,4060735343959325  0,1709130859375  0,12980703809261324  0,3602874381554445  0,027813697868748714  -1,6101468492241091  0,13896728515625  0,18793197428584085  0,43351121587087094  1,0327124053261691  -0,3978954782960691  -23,3575  2705,301021875001  52,01250832131633  0,7960977056092027  -0,07664983037473982  -157,260625  4841,9085980468735  69,58382425569087  -0,2067754731832306  -1,2249680826883762  -21,0025  6302,074212499994  79,38560456720094  -1,6128338166867398  1,5811698394407
25  0,070283203125  0,014313938951492309  0,11964087491945347  -1,0793388299611553  1,0606493427366246  0,00147216796875  0,005309135264158252  0,07286381313215945  0,6149501416945181  0,1822168361590264  0,54035888671875  0,12013933622241028  0,34661121768115105  -0,9440958274286139  -0,6986787646148138  -2,6325  124,73838124999999  11,16863381304983  -0,7365580581871456  -0,04070387605461878  -18,93875  432,08757656249986  20,786716348728575  -1,2514177344487747  0,7793469017303281  -0,959375  127,3833886718748  11,286424973031753  0,011672279138337875  -0,973611266303021
26  0,04269287109375  0,017737301176786423  0,13318145958348115  0,20776714540952607  -1,4235856493925312  0,039345703125  0,0036197051048278807  0,06016398511425154  -0,21413738403486118  -1,0195527003679337  0,4562646484375  0,05348470928668976  0,23126761400310628  -0,2911691222075574  -1,2747157816116526  0,48375  137,8252046875  11,739897984543989  -0,5089502287737682  -1,1162955391193101  17,881875  96,93624179687492  9,845620437375947  -0,8066103816112772  -0,3159417374260687  0,30125  27,14854531249999  5,210426596018793  0,17808621185818282  -0,016303481647748974
27  -0,76559326171875  0,13217438179850577  0,3635579483363082  0,033534618215446566  -1,1370879654661015  0,15991943359375  0,0276025062263012  0,16614001994191888  0,054223685109366176  -0,5620941775732669  0,6656591796875  0,3191489272356033  0,5649326749583558  0,45552060115984566  -1,1746229131249015  26,205625  1124,2554136718747  33,52991818767047  -0,15199459289831707  -1,0398839673454567  127,94125  1939,9468609375  44,044827856826736  -0,26642189010017014  -0,6500295468862358  11,229375  269,0812542968751  16,40369636078634  -0,603511235633289  0,7798361195153789
28  -0,99322998046875  0,016543237990140913  0,1286205193199783  0,5006880431879349  0,05285482854964618  0,09574462890625  0,022427479094266914  0,14975806854479298  0,8441043333827993  0,035213469701054656  1,68774169921875  0,007857765549421306  0,08864403843136495  1,0272986042790844  0,26448342522103685  28,241875  504,5139574218749  22,46138814547923  0,37508552214719987  -0,921834014349967  115,451875  124,43350429687499  11,154976660525785  0,04211767167367008  -0,33366365132449305  -0,0175  197,72859999999997  14,0616001934346  0,23679177036083723  -0,932462287787172
29  -0,0989794921875  0,07820590517520903  0,27965318731458977  -0,37861909549838196  -1,2601838494469415  0,21191650390625  0,011062554711103442  0,10517867992660605  -0,06128496282291281  -0,8175898832770621  1,3430615234375  0,02173013255596162  0,14741143970520612  -0,38844253517656924  -1,1099218465879825  19,9875  645,9578906249997  25,415701655177646  0,3840064580859001  -1,2322252020957185  49,510625  1446,4843792968752  38,032675153042746  0,08719884036032266  -1,4040566472770166  -26,368125  553,9363980468746  23,53585345907122  0,17980271883158322  -1,30890263931051
30  -1,03602783203125  0,5709163263499736  0,7555900517807084  0,025273837241942546  -1,478601237818599  0,33633056640625  0,02272484290003776  0,15074761324822944  -0,5787141800356709  0,3345805645665729  2,150869140625  0,2688334940910341  0,5184915564317649  -0,3303345552605911  -1,3152451992903862  -40,433125  3478,1750980468746  58,97605529405027  -0,847571024864372  -0,6695694765957914  -114,583125  9721,477738671872  98,59755442541093  -0,34555065629405973  -1,2980825611436684  15,5325  382,86355312499995  19,566899425432737  -0,14587662204293275  -1,320643620312942
31  -1,33300048828125  0,49829139048457166  0,7058975778996353  0,00501913298760844  -1,7237325592401096  0,17281005859375  0,20671406275630005  0,45465818232634947  -0,47991558304558446  -0,28984688394225033  0,2925634765625  0,7142873385190955  0,8451552156373973  1,188691936597478  -0,23214668028876106  -40,93875  2089,2714046875017  45,70854848589596  0,15090546034843297  -1,289190350451337  -215,029375  6324,316285546872  79,52557001082653  0,2691515969174044  -1,0417889386182841  -12,623125  4512,351051171875  67,17403554329512  -1,8351046571599816  2,8433682409237413
32  0,0677294921875  0,014868680453300481  0,121937198808651  -1,0278441032152734  0,2783238388070508  -0,04024658203125  0,013799324482679388  0,11747052601686683  0,16751500736949784  -0,6075559928257279  0,52845458984375  0,11375800773501389  0,33728031032809175  -0,4294164023186196  -1,5262361377046187  12,595625  205,40909804687502  14,33210026642554  0,21323766939627456  -1,0739325174283998  -21,00625  211,16972656249982  14,531680101161731  -0,9837075157555589  -0,1154171383110012  -7,94  250,73507187499982  15,834616252849319  -0,8750080970880872  -0,5925534783244233
33  0,04083251953125  0,036412642449140546  0,19082096962635042  -0,6146347618542296  -0,7879279724792259  0,04427490234375  0,0016089539229869848  0,040111767886581426  0,31794171773058855  -0,3739245137613447  0,365439453125  0,04385182466506956  0,20940827267581755  -0,167583333086704  -1,1832812789051819  -16,054375  249,51716054687492  15,796112197210899  -0,7801476684884259  -0,838400633003002  39,211875  502,335694921875  22,412846649229433  -0,5109618802590149  -0,9252552626260795  5,455625  90,43814804687497  9,509897373098985  0,43494223293118367  -1,2634323225764865
34  -0,7125390625  0,0312922219276428  0,17689607663157145  0,5005237614878341  -1,3209442204919133  0,14754150390625  0,005278631514310835  0,07265419130587605  0,23047741706025435  -0,9347571093269273  0,9481591796875  0,2541581835985182  0,5041410354241342  -0,16410542860927785  -1,2424566711749871  28,17625  720,7142484375  26,846121664730273  -0,2085211633177376  -0,911109694636147  118,48625  484,9223890624999  22,020953409480253  -0,9779841116929172  0,13275187705797675  18,086875  87,68616367187492  9,364089046558396  0,6864395577242791  0,5452022995540018
35  -0,69531005859375  0,00803696691393852  0,0896491322542417  -0,046307978818906144  -0,7250992522839916  0,055322265625  0,009775390625000012  0,0988705751222274  -0,23716560073192217  -0,9523687266515388  1,77634765625  0,0308491798400879  0,17563934593389915  0,31241186213678057  0,012983844269495837  31,92375  1247,1980140625005  35,315690762924355  -0,5357348114482193  -1,1668666893593151  111,048125  898,683348046875  29,97804776910723  -0,5905166330656988  -0,9396041011422942  13,21  195,25949375000016  13,973528321436936  0,11639509927653151  -1,598975863343479
36  -0,12826171875  0,07609988393783569  0,2758620741200858  -0,11423769661409178  -1,5526012825628805  0,011103515625  0,01205573496818542  0,10979861095744982  0,517286159248818  -1,3008642122335556  1,04579833984375  0,014487488383054737  0,1203639829145527  0,4613759610590865  -0,8569613648297278  2,2325  537,6521937499997  23,18732830125109  0,36055270914865767  -1,353449868071872  30,27625  86,19431093749999  9,284089128045895  0,7800239331790947  -0,07876968766935644  -23,205  92,88656874999998  9,637767830260282  1,058165216888874  -0,12772403762778684
37  -0,8607470703125  0,3444943890333176  0,5869364437767667  0,36850343964492893  -1,3723241261864596  0,151337890625  0,007104544973373416  0,08428846287229004  -0,2004992116466846  -0,7987073004046388  2,24478759765625  0,1519273369014264  0,3897785741949221  -0,8129056511953852  -0,5018747939870916  -9,6475  391,81222812500016  19,794247349293183  0,5029128979677765  -0,3463365665392515  -122,953125  8223,743623046876  90,68485884119177  0,3820395526514319  -1,3005882463283673  5,045625  369,11311367187494  19,212316717977426  -0,9375173045812988  -0,5339803161288055
38  -1,1067724609375  0,25452857639789583  0,504508252061248  0,03253194204977083  -1,1954332348585714  0,16002197265625  0,10815739795565606  0,32887292067857465  0,10478460507195414  -1,5027198144279381  0,3468798828125  0,42517859981060036  0,6520572059341115  0,9823159873304523  -0,4977767864619027  -21,31125  1099,3992953125005  33,157190702960655  0,5039078349158037  0,7075227521401155  -174,536875  1845,8308667968752  42,96313381024335  -0,05609859793709679  -1,32620452273327  -5,113125  2780,477007421875  52,73022859254334  -1,773198298234729  2,7336528251231336
39  0,15476806640625  0,012152326411008838  0,11023759073477993  -1,6838953966105348  1,8415857206546287  0,01347412109375  0,010094754332304003  0,10047265464943186  -0,04080938841173061  -1,0688053560348258  0,52986328125  0,17732570872306827  0,42110059216660845  -0,6257544405093403  -0,9837183979198199  -6,78375  120,59886093749994  10,981751269151015  0,02153198105418119  -1,397300088976101  -10,361875  753,4425230468754  27,448907501882026  -1,448953493694129  1,121445232513719  -0,1925  66,790990625  8,172575519687781  0,012701855693261422  -1,2108057666989271
40  0,0248291015625  0,02172484338283538  0,14739349844153704  0,0021770851196976798  -1,7317811158138858  0,0184912109375  0,004555457377433777  0,06749412846636199  1,5317359618047048  1,8696953490854424  0,5082275390625  0,04362692415714264  0,2088705918915888  0,46496324781992765  -1,210096056174394  5,57  129,20088125  11,366656555469598  1,018866119088198  0,4868086490836552  15,2575  91,917990625  9,587387059308703  -0,21120858884803057  -1,417426827096807  2,6675  19,210303125000003  4,382955980271762  -0,15900949199090098  -0,9455481317321079
41  -0,59885986328125  0,10248715192675587  0,32013614592350526  -0,6007281571302242  -0,6065326870675074  0,1784130859375  0,013811765408515933  0,11752346747997156  -0,6256968866103725  -1,0684694201150005  0,834130859375  0,2602168667316439  0,5101145623599114  0,4815549456190121  -0,9628526306466902  -0,846875  582,1681542968741  24,128161021861448  -0,6014928785353082  -0,4735967641562038  144,7725  3092,235353124997  55,607871323446616  -0,7109731833390118  -0,7114033867723646  14,9325  898,5532562500005  29,97587790624322  -0,008766713803650088  -1,0975067350297285
42  -0,90322998046875  0,02854666787981987  0,16895759195673887  0,15208038644366603  -0,7727303282632478  -0,19994873046875  0,015998414152860636  0,12648483764017185  -0,07704430105361172  -1,100309910136279  1,68040771484375  0,0348734597861767  0,1867443701592546  -0,13993310770480274  -1,3381312337232323  11,55875  859,5649859374998  29,318338730860926  0,02957785270151053  -0,8112275863250042  102,10125  736,8684203124997  27,14532041278017  0,5586478709971523  -0,9059582170148879  35,641875  1379,1316292968754  37,13666152600251  0,028440107115681762  -1,5484555955122923
43  -0,0736669921875  0,07056620314121242  0,26564299942067443  -0,4931296459153441  -1,1245991994720639  0,08846435546875  0,005527667254209524  0,0743482834651179  0,36868897263826816  -0,8185937787558077  1,1423291015625  0,04687300798892977  0,2165017505447237  -0,014389725997205276  -1,5489710044144918  26,788125  419,97788242187494  20,493361911162232  -0,0106740761377014  -1,0088579309591976  15,401875  601,1265824218749  24,517882910681234  1,2081755892811135  -0,15528929953955206  -15,829375  202,62342617187494  14,234585563755445  -0,8876991392819792  -0,6959226160728114
44  -1,04421875  0,475115340089798  0,689286109021354  0,744425714753274  -1,076513322803227  0,19381103515625  0,033201563805341706  0,18221296278075746  0,3217308033562751  -1,2952236253507912  2,3474169921875  0,5823495530843734  0,7631183087073546  -0,413559061945128  -1,0856690616169768  -50,85875  3299,993564062498  57,44557044770726  0,19378205591839356  -1,471230989937985  -175,43125  15757,24777343752  125,5278764794399  0,42493729050729945  -1,5419520423751427  18,51625  651,1986421874999  25,51859404801722  0,10399820297677675  -1,4602170467485251
45  -0,8878564453125  0,1568351950883865  0,3960242354810959  -0,22148215061291243  -1,2990507729017615  0,15902099609375  0,010321833342313782  0,10159642386577286  -0,5947645188462881  0,19522007360564642  0,227109375  0,1728949882030487  0,41580643117086186  1,1299781337376833  0,24089174446703243  -34,63875  1945,4147328124996  44,10685584818419  0,0329667041703457  -1,4286594256486438  -132,01625  6207,639110937495  78,78857221029897  -0,029080836243169685  -1,038320088488422  -30,83125  762,9089453124993  27,620806384182547  0,8971137743687823  0,4990378744537334
46  0,12943603515625  0,023111178940534605  0,15202361310182905  -0,9323995325858631  -0,23245620317186821  0,00800537109375  0,018596310967206958  0,13636829164878086  -0,17089886738983262  -0,475646531945332  0,58215087890625  0,04766384660601611  0,2183205134796456  -0,43891777687915917  -1,330578538360913  3,08125  83,02292968749994  9,111691922332534  0,45817884623125277  -0,4782330669142625  0,38625  128,32846718749994  11,328215534120982  0,1670356593462489  -0,19956435288083263  -20,0175  212,7575843750001  14,586212132524334  -0,8308851145253041  -0,22875572512441078
47  0,10219970703125  0,014111484163999554  0,11879176808179746  -0,1705463405571333  -1,2901463196138416  0,01316650390625  0,004762579506635666  0,06901144475111115  0,6254042335284129  -0,5166810848173826  0,45229736328125  0,09544000970721248  0,3089336655452307  -0,049490473043818504  -1,544201196230943  4,2975  74,92766562499999  8,656076803321467  -0,21797929989500756  -1,0032995218848564  20,26125  402,6172953125  20,065325696646443  1,1681794973306507  0,39806342237467973  3,9475  19,406853125000012  4,405321001357337  -0,06717273527416387  -1,602494842402409
48  -0,70449951171875  0,15252025324702267  0,39053841455997984  0,19462560470542054  -1,5964224216545166  0,2539013671875  0,04559598681926724  0,21353216811353562  0,2274430184568577  -0,7023280310661031  0,7339453125  0,3942068435192108  0,6278589360033118  0,3737379262096888  -1,2281097743457605  50,48875  397,7518265625  19,9437164681636  0,7266072606518944  -0,5279487235109634  147,995625  1140,3490824218754  33,76905510111107  -0,030457493168881054  -0,927163577321068  4,9925  609,9254124999998  24,69666804449539  0,7536502193221095  0,3908552128992282
49  -0,9098779296875  0,014535813355445877  0,12056456094328  0,5550472837355961  -0,8841193818127464  0,0972509765625  0,01836128618717194  0,13550382351495452  -0,3120630364768724  -1,0308496371232005  1,73479736328125  0,01950327379107476  0,13965412199815214  0,47842507704978826  -0,5645208799160728  27,673125  161,32061367187495  12,701205205486405  -0,41437840562612593  -0,6388065010997797  102,988125  712,6031792968747  26,694628285422418  -0,1382864435104331  -0,89038623031401  1,446875  273,2604199218748  16,530590428713513  0,9842607504157803  1,1456905511689115
50  -0,247470703125  0,060796336555480925  0,24656913139215322  0,010340690923479653  -1,4922278438048946  0,10156494140625  0,005981766575574872  0,0773418811225514  0,2576412734193069  -1,1500548398927188  1,1165087890625  0,03050619313716888  0,17466022196587544  0,3024571406441019  -0,7170023257759923  8,296875  140,615498046875  11,85814058134221  -0,6077889764389414  -0,8186936002504082  35,288125  261,98897617187515  16,18607352546859  -0,20278139413533836  -0,9494636480555902  -15,391875  98,24131679687498  9,911675781464757  0,3079963317862689  -1,299643713476748
51  -0,45847900390625  0,3496879711806773  0,5913442070238596  -0,5173339724923616  -1,1235613053113118  0,21525146484375  0,005115345782041552  0,07152164554903327  0,8527728616758662  -0,13541836729483636  1,86337158203125  0,35079946119189254  0,5922832609418339  0,24441383876658535  -1,3422997872837716  -27,260625  380,63297304687495  19,50981735042322  -0,327740551276595  -0,5242129157817019  -65,599375  4650,018991796873  68,19104773939812  -0,46073027066692396  -0,9605435503558164  -5,689375  209,13956679687502  14,461658507822504  0,22066433780024786  -1,0147465820624444
52  -1,45713134765625  0,07514907490611075  0,2741333159360802  0,9789169057272152  0,30364697436602706  0,13755126953125  0,05091019522547721  0,2256328770934706  -1,1932918776311134  0,6481849358075049  1,06029052734375  1,040603248327971  1,0200996266678912  0,2553918448696407  -1,442295678585329  -36,0675  3495,2820062499995  59,12091005938592  0,6555938360604893  -0,30561096393393283  -203,59  1623,478931250001  40,29241778858649  0,47708047920634883  -0,6565126794140319  -17,53125  1893,1144140625  43,50993465936831  -1,4583728921076573  1,1697226720205602
53  -0,0753369140625  0,07676377317905429  0,2770627603613562  -0,6684076445902778  -0,9456014215338358  0,043466796875  0,008658518695831303  0,09305116171134728  0,5272666499116841  -0,09189497276939429  0,23464111328125  0,19107194673419006  0,4371177721555028  0,020192669454885428  -1,5941453283019436  -13,38875  316,2996546875003  17,78481528404218  -0,07583789936185731  -1,0008051546159535  -39,315625  1860,819482421877  43,13721690630814  -1,1204921346252095  -0,05511730936251569  -3,846875  75,78838867187498  8,705652685001567  0,008442302822116535  -1,1748884273840903
54  0,075966796875  0,017102156543731692  0,13077521379730828  -0,4795444672192985  -1,4705171359731313  0,0260595703125  0,0037825341463088974  0,06150231008920638  1,050747384866312  0,9335827541581727  0,4132373046875  0,07865655515193942  0,2804577600137665  -0,01222577569839343  -1,1925419304912686  9,8025  131,125915625  11,451022470722865  -0,038278794321112995  -1,1028198970287788  29,94125  500,8428765625001  22,379519131618984  0,04415185399549041  -1,2031325678281335  1,121875  21,464248046874996  4,63295241146237  0,5737699068424063  -0,8846781391274696
55  -0,85568603515625  0,1567206643760205  0,3958796084367323  0,010372749734834392  -1,205904864010309  0,15116455078125  0,021980230873823167  0,14825731305343143  -0,10608656361822703  1,4536562135345195  0,58955078125  0,32757787585258474  0,5723441935169647  0,7723317688773771  -0,9761275738302295  27,428125  566,5463574218751  23,80223429474374  0,39006808075164184  -0,9927711061595592  158,2  1236,4331250000005  35,16295102803518  0,24785038871126958  -0,6717808743771823  11,97375  340,8914984375  18,463247234370773  1,1283211542604594  0,9634701638948537
56  -1,19035400390625  0,029655025833845126  0,1722063466712105  0,31402113091219575  -0,684141495962737  0,08998046875  0,027071210527420068  0,1645333113002351  -1,604507733351459  1,6815713889438548  1,7573779296875  0,020168504214286807  0,1420158590238668  1,0326424927002669  -0,0813345631016622  45,735625  576,565223046875  24,011772592769468  -0,3052604523811792  -0,715858984291518  97,090625  1174,3863574218744  34,2693209361066  0,11579456331709075  -1,226664561840014  6,48875  127,97581093749997  11,312639432842362  1,49777845472773  3,537077035333903
57  -0,05489013671875  0,10323483592867856  0,3213017832640811  -0,7944492779322371  -0,560161611168077  0,323984375  0,005547182464599613  0,07447940966871054  -0,24130881801736445  0,2290796096506833  1,1651806640625  0,06312988541126253  0,2512566126717117  0,34678674742125104  -0,660453312436923  7,268125  638,6237730468749  25,27100656972086  0,32501185919245856  -1,462680291672578  5,1175  202,589865625  14,2334066767236  1,257506689535944  1,2304997132699587  -5,00625  218,48347656250004  14,781186574916779  0,05275024651909565  -0,9109288589592972
58  -0,85179443359375  0,7128888182342054  0,8443274354385302  -0,04143744995624086  -1,5722515846301026  0,22022705078125  0,00433758780360222  0,06586036595405631  -0,06429126139407257  -0,8639869395964488  1,99089111328125  0,5418628283679489  0,7361133257644158  -0,4489358771106434  -1,3650896087680304  -47,87375  1055,9592953124995  32,49552731242408  -0,07016145767427626  -1,1144866359491676  -68,460625  9412,903801171875  97,02012059965641  -0,6300549996374278  -1,3331109075739784  16,305625  24,44296054687499  4,943982255922344  -1,9362878737619833  4,842384813199911
59  -1,39045654296875  0,35276032888293263  0,5939363003579867  0,14924807154559136  -1,5252826508384119  0,28597412109375  0,10865798637270933  0,3296331087325867  0,14050732418267306  -1,2082264681721944  0,5443310546875  1,0280878271818163  1,013946658943071  0,7183290774850398  -1,1713484986417257  -32,63875  918,4023109375003  30,30515320762296  -0,048870070061201046  -0,899649459442434  -198,745625  4573,3993949218775  67,6269132440767  0,16541602689576532  -1,2115250055617908  -32,025625  1783,1521167968747  42,227385862694305  -1,5012559803266925  1,887337751529766
60  0,0368603515625  0,024601470208168004  0,15684855819601276  -1,005870104929649  -0,4750134820695209  -0,02491943359375  0,009641287630796434  0,09819005871673789  -0,4797322314829822  0,8471067132170842  0,38689208984375  0,15896371995806693  0,39870254571305025  -0,2312561541027738  -1,527277744592993  -5,02875  165,95089218750002  12,882192833035067  -0,050427194480147756  -0,3401596515612879  -22,62125  788,1192046875002  28,073460860526268  -0,8981804345546494  -0,7393958574310648  4,363125  138,47810117187498  11,767671867105872  0,18695780502224582  -0,8878704013643408
61  0,1161083984375  0,006762206768989562  0,08223263810063229  -1,0320968307101195  -0,1374925039881436  0,012822265625  0,0037679797172546366  0,061383871800780344  -0,4374148076182182  -1,1181307592228398  0,618720703125  0,07023298034667967  0,265015056830135  -0,42241632614301766  -1,2550695447551279  6,5975  35,92924375000002  5,99410074573326  0,5049637114022995  -0,6394231975631635  15,813125  127,24667929687506  11,280366984139969  0,9105370926444292  -0,32251866170167576  1,956875  20,852554296875006  4,566459711513396  0,06044519458023886  -0,9069964264815469
62  -0,65116943359375  0,13590251647829998  0,3686495849425305  -0,07233317606074975  -1,1642945418043877  0,25218017578125  0,07020219594836234  0,26495696999392626  0,4349599882817708  -1,405856536496627  0,2855908203125  0,16367062757015227  0,4045622666168365  1,317277577978607  0,7712254581278355  27,201875  1309,1944417968755  36,18279206745764  0,42866473594985377  -1,3071685383652596  102,895625  1849,6489886718746  43,0075457178374  0,7174621556712268  -0,8602925336575153  4,714375  670,0883011718752  25,886063840836737  1,2030142447456564  1,3887082441970362
63  -1,17700439453125  0,025266694420576094  0,15895500753539063  0,9475508782131814  -0,2709287879467839  0,1296533203125  0,003416573786735534  0,0584514652231707  1,4890440458452865  4,144650296153827  1,8817626953125  0,0743098920583725  0,2725984080261154  -0,37024773300001024  -1,2676319804390943  23,856875  490,11767929687505  22,138601565972387  0,934169084659943  0,2799925585889649  135,13125  2391,721757812498  48,90523241752868  -0,30337392939750807  -1,5072667806111195  15,15  501,37429687500014  22,39138890008836  0,36905281785968275  0,01465281587295042
64  -0,236123046875  0,15490375604629514  0,39357814477724135  -0,18903312223293237  -1,5019238026676525  0,16396484375  0,007652587890625003  0,08747907115776324  0,29012951145197  -1,3711043349662861  1,3895654296875  0,00798817183971405  0,08937657321532333  -0,02719526675554647  -0,2487772901047416  22,69  527,9524156250004  22,977215140765  0,09766366639942987  -0,8795276218854386  25,2725  1004,4971500000008  31,693803022042037  0,4909774153146876  -1,0332619250561421  -22,568125  218,440007421875  14,779716080556994  -0,5916251693171585  -1,1328335508722145
65  -0,42797119140625  0,48620679313540494  0,6972853025379245  -0,35364013962853447  -1,5033923782207734  0,24424072265625  0,030847607964277296  0,17563487115113927  0,24616441032381162  -1,0671724144396115  1,6445703125  0,2734211501121522  0,5228968828671215  0,3231831338811292  -1,48309635525842  -44,82  1524,3877562500006  39,043408614643276  -0,7354248338220475  -0,8879860100278028  -45,740625  2151,862685546875  46,38817398375232  -1,3902886488758288  0,34979034008705456  8,615  553,08193125  23,51769400366456  1,2320094982869028  0,8580001135398589
66  -1,667509765625  0,19963080797195445  0,4468006355993179  0,7733871493682001  -0,7410207960458135  0,1124462890625  0,06303772232532501  0,25107314138578224  -0,7449910959240037  -0,7719983193967082  1,0402587890625  0,9464283579587929  0,9728454954199012  -0,022323082370785695  -1,69058503892955  -18,25875  1661,7527359374988  40,7646015059328  0,28715443745448366  -0,27415785443253915  -191,889375  738,2050667968747  27,169929458813005  -0,13400036673586774  -1,419887912760725  -35,39  1631,4302437499996  40,39096735348139  -0,1068897052305807  2,179033741418193
67  -0,010458984375  0,07931225743293763  0,2816243196759428  -0,7802566488116194  -0,7352776879270504  0,06024658203125  0,04808098656535145  0,21927377081026234  0,7264103584938565  -0,7375793621164188  0,02962158203125  0,2109880829513074  0,45933439121331576  0,6386811521540483  -0,998134552225924  -14,095625  328,14394179687486  18,11474376845764  0,7183750322072674  -0,12401086542206219  -47,9  3325,5761718749977  57,66780880070785  -0,7136742474452149  -0,3792694197857047  -5,251875  265,3755824218749  16,29035243393693  0,0430114597564128  -0,8014794599953667
68  0,06138671875  0,005450874948501589  0,07383004096234533  -0,27942915872646873  -0,9434759145063145  -0,043896484375  0,010218522548675531  0,1010867080712174  -0,6625127382305925  -0,08736745925526046  0,555966796875  0,1312465824127197  0,3622797019054748  -0,6584798035042374  -1,0899517064640343  11,68375  165,82936093750007  12,877474944161222  -0,06758239424803825  -0,40296050859523147  17,1375  63,327656249999926  7,957867569267531  -0,39754866485262624  0,39257296236534467  -0,444375  95,10280429687509  9,752066667987616  0,787192132550834  0,31936564969591075
69  -0,7667138671875  0,2323041754007339  0,48197943462427306  -0,006910001637733049  -1,3659741832363048  0,21125244140625  0,02188646113276481  0,14794073520421888  0,6545530388359986  -0,7994833524624436  0,39407470703125  0,2520091124236584  0,5020050920296112  0,8047798363072238  -0,7732541005536588  17,211875  998,814835546875  31,604031950795058  -0,23853695627828947  -0,822442004009381  133,468125  1953,0656636718745  44,19350250514067  -0,04587219553124636  -1,4181308944796622  -5,0675  100,60614687499998  10,030261555662443  0,5776484390831893  -0,18558448347453105
70  -1,1771142578125  0,07280262758731842  0,26981962046396557  -0,4901761152968903  -1,128029084727846  0,0241748046875  0,03462397334575651  0,18607518197157974  1,322658393256882  0,832490180539061  1,74614013671875  0,06514611565470699  0,25523737119533846  -0,10708663024196365  -0,981145858384521  11,945  1898,7281468750004  43,57439783720483  0,20856326062952457  -0,7229912369243237  115,339375  1581,9949417968758  39,77430001642865  0,20557320653836575  -1,0642842293830146  25,3625  677,9394531249995  26,037270462262352  0,27863871138574464  -0,837732255972377
71  -0,4081005859375  0,09922258994579317  0,31499617449390266  0,20869268320643633  -1,4245237127014796  0,08215576171875  0,0054395335853099835  0,07375319372955982  -0,4095770793681086  -0,5495284064837582  1,284169921875  0,005336013936996464  0,07304802486718216  0,31006579193799666  -0,938096147272431  -1,5375  235,37671875000004  15,34199200723296  0,1461755916846759  -1,148960285133827  29,926875  826,0469574218744  28,741032643624244  0,46036724700253195  -1,2712710793369324  -14,548125  59,791316796875016  7,7324845164329306  -0,5572712425954186  0,5375073922576661
72  -0,7336279296875  0,5285559449434276  0,7270185313617719  -0,31132289257115536  -1,3357323976275484  0,03747314453125  0,018369297379255287  0,13553338105151544  -0,29192680233593615  -0,9609875988327077  1,92535888671875  0,20132162672877296  0,44868878605195045  -0,09737282053202242  -1,6936651838442658  -25,501875  252,4932386718751  15,890035829785756  0,05056011860620104  -0,812477464096542  -80,01125  3053,1608109375006  55,25541431332771  -0,5732351890461818  -0,9189430073222691  1,1775  170,73677499999997  13,066628295011684  -0,09611005078264342  -1,2905419206194104
73  -1,576376953125  0,3340702101230621  0,5779880709176116  0,7076589863604751  -0,9318179806303428  0,1655078125  0,1252795680522918  0,35394853870625287  0,06040237889436331  -1,2380728356957733  0,57632568359375  1,0354183121383194  1,0175550658997867  0,2922420557107546  -1,4093306479234895  -15,8175  2248,5942718749993  47,41934491191331  1,4058534609429985  0,8114178255758793  -221,133125  1509,7148949218747  38,85504979950321  1,1639486086310067  0,9738788065813129  -36,020625  2007,456098046875  44,80464371074582  -1,3721512902872446  1,2930063968385772
74  0,11895751953125  0,034175668209791184  0,184866622757574  -1,5930943614079023  1,5534055718672057  -0,00092529296875  0,005406058186292646  0,07352590146535197  -0,5903113229886081  -0,40605566751251265  0,3264013671875  0,22280449965000154  0,4720217152314092  -0,7076277734115175  -1,100219987441319  1,07375  327,1479984375  18,087233023254274  -0,04250203602717623  -0,7302156054554372  -25,201875  986,3860042968747  31,406782775331745  -1,4097309163604876  0,4657245987788765  -2,53875  107,79217031250003  10,382300819784602  -0,3334314364319188  -1,129356857518564
75  0,10011962890625  0,02080520402789116  0,14424009161079718  -0,8107850273587702  -0,7447326252520785  0,02658203125  0,0013073459625244145  0,03615723942068053  -0,8046240984576118  -0,9348271802765882  0,3513720703125  0,09313606331348417  0,3051820166941102  -0,4477886611675491  -1,1510665861561515  -0,5975  635,428775  25,20771260943761  -0,03233871030992838  -1,2813958851525118  38,70875  517,4279859375  22,747043454864635  0,5301425311763451  -0,342671789642647  6,629375  36,881269921874996  6,072995135999616  -0,370992261920618  -1,3603986927510325
76  -1,15139892578125  0,28027212459445006  0,5294073333402646  0,22984605434972188  -1,4116042917642617  0,15830810546875  0,04635502607226373  0,21530217386794712  -0,6284259529137124  0,41578169227394657  0,708408203125  0,6410363072395323  0,8006474300461672  0,2962834667313493  -1,5149681451957986  21,90875  1568,1864390625005  39,600333825139664  0,4282578285506485  -0,6613900934049677  173,28625  1210,5422796874998  34,79284811117796  -0,49882903377845417  -0,2741362418839688  31,06125  425,2690609374999  20,622052781852243  0,6032899910564168  -1,007716543434998
77  -1,1315234375  0,07386037836074827  0,27177265933266403  0,11632400703352247  -1,1803714564803862  0,02185546875  0,010491752004623411  0,10242925365647947  -0,8873375925688705  0,975735319857006  1,8276416015625  0,03708540556430818  0,19257571384862676  -1,026865370378466  0,23321186493288026  22,563125  858,8598042968737  29,306309974080218  1,2209248880184107  1,5345932629607235  71,54125  2420,6062671874984  49,199657185670496  -0,2547758947799308  -0,9474422035674923  -1,791875  542,7755511718749  23,297543887111253  0,3921031719123427  0,050020102878302275
78  0,01520751953125  0,07301045810580259  0,2702044746220954  -0,4649706175048033  -0,9216334102688131  0,1253955078125  0,007304881548881532  0,0854685997830872  -0,03574952676183207  -0,905068246507112  0,9097900390625  0,0694781905412674  0,26358715928752563  0,4543420541290921  -1,4949780779111081  -7,28125  225,6474609375  15,021566527413178  -0,12081318746253257  -1,360058951996949  -14,523125  163,27036367187497  12,777729206391681  0,0029290009442798862  -1,1559405754148318  -7,670625  110,18350429687514  10,496833060350877  -1,2305390370943914  0,4847635889538249
79  -1,4725390625  0,9724949627876288  0,9861515921944398  0,5159267820885017  -1,173946729810285  0,0801123046875  0,023080984377861033  0,1519242718523312  0,3044740701181264  -0,6851282091197008  2,2007470703125  0,4844083411931993  0,6959944979618727  -0,9212803593377296  -0,12727470489867843  -25,100625  2236,1885074218753  47,2883548817452  0,18638168288951967  -0,8338263597244131  -86,374375  14878,246757421875  121,97641885799842  0,022558557909450556  -1,5869991406224149  -7,2325  761,2731312499997  27,591178504188612  0,16406233013139093  -0,9105044338575436
80  -1,1827587890625  0,6756359781980511  0,8219707891391586  -0,4323071379609546  -1,2397961175216532  0,18735595703125  0,10629881154894828  0,3260349851610227  -0,47958107967515234  -0,23886920813651447  -0,0112255859375  0,41967780110835967  0,6478254403065379  1,5240992324297102  1,1748999084422245  -19,92375  1370,6040296875005  37,02166973121959  0,30335522974815765  -0,2934990790960601  -218,02  6501,985537499997  80,63489032360617  -0,051042650967485045  -1,2199843995341344  -31,518125  1868,4568199218745  43,22565002312718  -2,0342660494911398  3,9768515532396727
81  0,194619140625  0,006281269454956055  0,07925446015812647  -1,0534217047370464  -0,2758735277411022  -0,02958740234375  0,013103323811292646  0,11446975063872833  0,5821582191338761  -0,9453050212597365  0,4745458984375  0,1083792240858078  0,3292099999784451  -0,863260941808673  -0,17856230308019194  -6,026875  177,91541054687502  13,338493563625356  -0,49565791784341495  -0,7646271844526491  -22,313125  848,4323042968748  29,127861306605997  -0,23245725999932285  -0,925949060022254  -1,920625  166,32889492187508  12,896856009193678  0,6681455202525557  -0,35105988589209236
82  0,103310546875  0,016941886806488036  0,13016100340151052  -0,5072371870984373  -0,3733453652065819  0,01875244140625  0,0038785096347332005  0,06227768167436229  0,8190005012327232  -0,7423116608973785  0,37689697265625  0,09541293365359299  0,3088898406448373  -0,280325214506646  -1,5357837902615654  3,438125  196,04019492187493  14,001435459333265  -0,4994623270659805  -0,957878257882423  39,00625  882,7469921875  29,71105841580707  1,0316958506701759  0,032669879431052706  1,86  12,133134374999996  3,483264901640413  0,003574934986159908  -1,2977811541715036
83  -1,0020556640625  0,20485787293910987  0,4526122766111298  0,2429529366910442  -1,4034825754717022  0,17576171875  0,02803330144882201  0,16743148284842374  0,6012506204753456  -0,7492038954662843  0,70063720703125  0,4779319497287274  0,6913262252574593  0,31457476445120874  -1,3194327464891913  16,218125  440,16003867187493  20,979991388746445  -0,15153228224022725  -1,1946131195323406  170,430625  1029,9734292968749  32,093199112847486  -0,34803268708186924  -1,4233449226272117  24,62875  355,2222515624998  18,84734070266943  0,303402741238309  -1,313747640017791
84  -1,11465087890625  0,04926793085932732  0,22196380529114948  0,4723680199224732  -0,9261213577876415  -0,15802490234375  0,002028498476743698  0,04503885518908866  0,5261176457856261  -0,2487366094798995  1,70764404296875  0,029420824640989305  0,17152499713158226  -0,9401098122439557  0,5508333887759131  12,648125  167,97091054687488  12,96035919821958  0,19544861960361856  -1,374574449343919  90,381875  903,2461636718748  30,054054030560916  0,3559530286028474  -0,8965409804205984  27,115  509,53677500000026  22,572921277495304  -0,5045691212111825  -0,24106641827026642
85  -0,1516748046875  0,07711569859981532  0,2776971346625948  -0,3866957722716626  -1,074575191368177  0,04598388671875  0,003983065336942671  0,06311153093486697  -0,14584754725246854  -0,8668362058434327  1,0967529296875  0,030233967900276198  0,17387917615481216  0,5914853361247714  -0,8371249422256697  10,705625  361,5231480468748  19,01376206979762  0,21872922409505507  -1,2029911257437653  8,74875  154,35523281249988  12,423978139569462  1,600097042887274  1,9872938081684257  -6,861875  106,00064804687501  10,295661612877291  -0,47930359960954033  -1,0583221210670966
86  -0,98335693359375  0,6491628015697004  0,8057063991117983  0,06161698515501277  -1,617251415565202  -0,06541015625  0,011235081768035888  0,10599566862865618  0,1069891373673226  -0,9848516907657134  2,1968798828125  0,43136280081272077  0,6567821562837413  -0,4202332842788262  -1,2197681676444556  -40,853125  2175,415732421874  46,64135217188578  -0,4773075196714883  -1,174884331932676  -114,731875  13109,562523046872  114,49699787787831  -0,5678819681464821  -1,1515167559842914  -18,42375  168,28692031249997  12,972544866467025  0,19050286835210264  -1,0086298291085303
87  -1,1040283203125  0,09462945401668549  0,3076190078923692  -0,03413386352320911  -0,8861459604795501  0,1698583984375  0,07749329402446739  0,27837617359333644  -0,4390194880892051  -1,3691958303026333  0,53805419921875  0,1794370659053326  0,4236001250062759  1,6817079086196836  2,527152508900935  2,5125  1408,9090625000003  37,53543742252114  -0,11502000907757907  -1,0683220346907918  -170,225  5589,861328125  74,76537519550745  -1,0045423693561226  -0,431673979646761  -27,36  2130,9661812500003  46,16238924979945  -0,9988982234463352  0,8093616240471269
88  0,03613037109375  0,06476417362093921  0,2544880618436535  -0,8643168925620526  -0,538428538889625  -0,03313720703125  0,005628944462537766  0,0750262918085238  -0,01199313459748602  -0,3610888577479745  0,29632080078125  0,07330790025591852  0,27075431715102627  0,3607506096646947  -0,8596077602826755  -1,591875  211,517613671875  14,543645130154786  -0,8719621087794007  -0,2468576395102402  -34,998125  1353,9837074218754  36,79651759911358  -0,03272829617290438  -1,0583180397572425  -5,979375  66,239379296875  8,1387578472931  0,49855033002310345  -0,6465356277948344
89  0,13862060546875  0,0076160756289958935  0,08727013022217793  -0,8195261818071174  -0,13864392050468277  0,00720703125  0,0024579733371734623  0,04957795212766923  -0,09648548463770015  1,745186743620832  0,62792236328125  0,07487299615740774  0,27362930427388027  -0,48188451645807096  -1,1164232351634467  11,36  42,82055625000001  6,543741762172466  -0,6403137234010766  -0,6435823373377518  9,493125  109,88639804687496  10,482671322085556  -0,5549414285958542  -1,1634755904137568  -2,50875  39,3167203125  6,270304642718726  0,1096646239578843  -1,3496176677315004
90  -0,54084228515625  0,1449835721194744  0,3807670838182765  0,030832588139162183  -1,5576115978663077  0,2347265625  0,027865181350708007  0,16692867144594425  0,42818095848392235  -1,15370619377318  0,426640625  0,30345705447196947  0,5508693624372021  0,9019675266792294  -0,6983238719836846  15,295625  1487,297019921875  38,565490012728674  1,1030941920118975  -0,15733467284647995  117,02  2333,5535062500003  48,306868106409055  -0,3675192255911233  -0,9099329449410649  5,370625  161,09259804687494  12,692225890161069  1,7207859723274483  2,7419099189990037
91  -0,95621337890625  0,0175071494281292  0,13231458509223085  -0,10684664950337272  -0,9746199171667067  -0,0219384765625  0,020943949246406558  0,14472024477040715  -0,3701275083112805  -1,0050249052621818  1,90390625  0,022356052398681638  0,14951940475631126  0,25599161121038755  -1,030390614232265  20,570625  632,5366136718751  25,150280588332908  0,8673549546912404  0,8322198954256042  111,82625  981,3238734374995  31,326089341593526  1,5328235668326524  1,566556853061856  14,071875  231,77081054687494  15,22402084033239  0,4524011748692516  -0,8468608189703626
92  -0,246689453125  0,05954758920669558  0,24402374721878112  -0,11973302286378285  -0,8541638632558612  0,11533447265625  0,009556621426343918  0,0977579737225763  -0,1623484779408267  -1,4209743666999772  1,16894287109375  0,10318061172366151  0,3212173901326974  0,674635808583293  0,10626524409827143  -4,556875  400,98555429687497  20,024623699257745  0,49647253858678814  -0,8777172671989466  35,2675  185,40719374999998  13,616431021012811  0,5678756268955544  -0,5680309100772676  -7,2525  206,4456968750001  14,368218291597609  0,29676403483672353  -0,573464811760978
93  -0,16704833984375  0,31843590003848066  0,5643012493681727  -1,0596190977093984  -0,22140405551728648  0,0357275390625  0,015153544211387626  0,12309973278357522  -1,326162421235924  1,149483771200786  1,70937255859375  0,8236697126567362  0,9075625117074505  0,4258668233611679  -1,4051511256030433  -2,570625  1006,8529417968747  31,73094612199382  -0,2655862329065866  -1,129651192726264  -3,47  2453,95644375  49,53742467821677  -1,2648698107323004  0,5398866668062925  8,463125  713,0039136718749  26,702133129618595  1,2917217239081495  0,3708455500006216
94  -1,70449951171875  0,14636569935679428  0,382577703684878  0,6136720391125808  -0,7884387835584175  0,047890625  0,13742079343795777  0,3707031068631038  1,1581352904692184  0,14399726783832412  1,37084716796875  1,1261600249946122  1,0612068719126408  0,18353088302809123  -1,4470794915651963  -61,253125  4449,6577636718785  66,70575510157934  0,21584585592889555  -1,1280494551651474  -208,73375  2460,6818453125  49,60526025848973  0,09495669903570102  -1,0123330948044522  -51,6425  3226,985240624999  56,806559837971164  -1,4136026161006108  1,7240999010254203
95  -0,22819091796875  0,15473897344470022  0,3933687499595008  -0,33762331983437127  -1,403080728766323  0,1327783203125  0,03306788208484647  0,18184576455019916  0,9536835154337494  -0,024987171054080104  0,09367431640625  0,0388426049888134  0,19708527339406515  0,25192447519585304  -1,5009792424767283  7,7675  230,09617812499997  15,168921455561696  0,25813347190652003  -0,8626446651520316  -85,69875  4304,108154687501  65,60570215070868  -0,5511083514203571  -0,8695305851634476  -8,338125  163,51156992187506  12,787164264287648  0,0994863064294127  -0,8741729159920175
96  0,26053955078125  0,004117093151807788  0,06416457863812236  0,3117089972910359  -1,3694268411343011  -0,06458984375  0,0026192108631134014  0,051178226455333535  -1,1106620341733446  0,17109862120569552  0,80309326171875  0,022507572716474522  0,15002524026467853  -0,3726957107849505  -0,7325128268923646  10,89  151,8557906249999  12,322978155665128  0,25924071572611057  -0,9708636506842274  15,20125  131,30801406249998  11,458970898928925  -0,4472699281235197  -0,5920162558728803  -1,420625  31,658269921875018  5,626568218894624  0,08392404216376902  -1,5403079595329012
97  -0,14289306640625  0,05356247221827507  0,2314356762002675  -0,585291546223759  -0,9899672024287764  0,07318359375  0,01619864954948425  0,12727391543236286  0,5504036554946126  -0,11349982164880767  0,10496337890625  0,058244546955823866  0,24133907051247186  0,5139507019005268  -1,1775245568628556  14,153125  322,597373046875  17,96099588126658  1,1245621456933843  0,5226095254854393  61,99375  2522,1166015624995  50,220679023311696  0,04750665854756842  -1,659421394521504  -6,183125  317,570644921875  17,820511915258635  -0,5310288822489037  -0,8768037488394351
98  -1,12530517578125  0,028099929541349412  0,16763033598173516  0,4808268811421803  -0,14575567284452706  0,2196826171875  0,023031241154670718  0,15176047296536316  -0,17227329567970118  -0,5394722105166978  1,368974609375  0,1688370440959931  0,41089785116984134  -0,3435264127347339  -1,17845676848628  27,008125  447,54716054687503  21,155310457350303  0,22062702804356607  -1,3141513245973848  136,19625  532,4260171874998  23,07435843501396  0,29203799812100517  -0,6031586700845248  33,7325  406,5269593749999  20,16251371667233  -0,4898001980346017  0,02350216655014581
99  -0,641201171875  0,11734745445251465  0,3425601472041292  -0,4691481142030867  -1,4790934442484787  0,11955810546875  0,015848377102613453  0,12589033760624146  0,5412651664046654  -0,581968856141172  1,786328125  0,19935109138488755  0,44648750417552285  0,6257246098474863  -1,1778655868192383  34,245625  256,3293949218751  16,01029028224895  -0,4943965529156731  -0,3721955597289677  92,958125  1843,511801171876  42,93613630931265  0,8467663249063011  -0,29449001565025235  -1,828125  622,760498046875  24,955169765939782  0,1287949051176364  -1,3445884311464658
100  0,12084716796875  0,026810552471876154  0,16373928200610918  -0,17307562627786505  -1,1858242703305213  0,09025390625  0,006948320722579956  0,08335658775753693  0,34863225132417336  -0,3380379609001527  1,11922607421875  0,016117139309644694  0,1269532957809473  2,099980398189088  4,462705453172182  -8,543125  504,310601171875  22,456860893096234  0,01717926961985851  -0,8080868416813347  9,1675  180,309678125  13,427943927683046  0,00577184426470704  -1,4817519033251196  -24,665625  85,31362304687505  9,236537394872336  1,1219216521241753  -0,24179928011305352
101  -1,50650634765625  0,30916612073779126  0,5560270863346418  1,060650102244887  -0,3466994277380011  0,17924560546875  0,03952913605570793  0,1988193553347056  -1,741677273863157  2,383180128935071  2,06543212890625  0,22387245833277702  0,4731516229844055  -0,24478180541407657  -1,2225557751203568  -35,83375  2737,8034546875006  52,3240236859466  1,5810534327130277  1,8054983187625622  -170,326875  5511,721707421876  74,24097054471929  0,4059556776422979  -1,2897771379664613  11,154375  457,4158167968752  21,387281659829405  0,588294978078045  -0,47238693302104506
102  -0,6751123046875  0,23235399796962747  0,4820311172213133  -0,44307312729746634  -0,7626229555215303  0,13361328125  0,10278859505653389  0,32060660482362785  -0,06690124601497416  -0,8236948930283732  0,09137451171875  0,10364780647158625  0,3219437939634592  1,2645327807449258  1,5309081427609232  -9,879375  647,8304105468751  25,452512853289655  0,16988277949186856  -0,09472497434005556  -145,429375  4838,483723046872  69,55921019568058  0,4667362787426936  -1,1137324067979797  -24,98625  1528,5862171875  39,09713822247736  -0,867978468509106  0,44573003860732596
103  0,197734375  0,006557274675369263  0,0809770009037706  -0,891097950053612  -0,4968071455044476  0,021591796875  0,004735808753967285  0,06881721262858068  0,01622388689313692  -1,3420959009080922  0,70381103515625  0,07232345663905149  0,2689302077473847  -0,539609709138614  -0,9664937885681906  -6,58875  165,6119671875  12,869031322811363  0,3772737919138568  -0,6543446420981924  5,25125  277,7699984375  16,666433284824322  -0,2867221372700589  -1,49524737264316  -2,410625  38,98470742187498  6,243773492198046  -1,1281621864247102  1,0117938002640425
104  0,16896728515625  0,007299925202131271  0,08543959973063586  -1,2345132063247173  0,3756098097139873  0,0347607421875  0,00227133367061615  0,047658510998730856  0,3679753927145531  -1,2430721042986403  0,76660400390625  0,042587319010496144  0,20636695232157726  -0,3781904100134834  -1,0200713381385034  3,521875  285,982529296875  16,91101798523303  -0,3765839399574083  -1,5199386528764374  5,5075  114,99564687500003  10,723602327343178  -0,643238639159302  -0,8035297198662592  0,4575  28,393115625000018  5,3285190836666825  -0,012668453292159506  -0,9849545878536934
105  -0,48608154296875  0,12101246415972707  0,34786845812710165  -0,3278977933721686  -1,334525268527053  0,18994384765625  0,004891431921720505  0,06993877266381292  0,4230314771313527  -1,0703405837777145  0,272080078125  0,06132991948127749  0,24764878251523362  0,6227608521957009  -0,7953644571493004  7,824375  657,8411480468753  25,648414142922665  0,34398777274884407  -0,8994491750140412  108,375  2722,2803125  52,17547615978219  -0,19398210418014564  -1,137058689685334  5,871875  89,58885742187502  9,46513905982765  -1,5288678963684152  3,292032694674462
106  -1,34494384765625  0,008410442942380905  0,09170846712480209  1,4678033654685223  1,4479186627736746  0,14847900390625  0,026150652235746384  0,16171163296357619  -0,30494712175937283  -0,8474335437344056  1,83900390625  0,1643435732364656  0,40539310950787705  0,017082343172570794  -0,6931356016423651  28,2325  214,87977187499996  14,658777980275161  -0,030002671553218355  -1,1641688318344459  160,0825  960,6554593750001  30,994442394968168  -1,8387423214088308  3,694713074245909  30,9825  484,4149281250001  22,009428164425355  0,26731541677698184  -0,9131422766626778
107  -0,33097412109375  0,12834221369624144  0,3582488153452031  -0,36320328041839983  -1,179450566935789  0,00156005859375  0,010810499066114431  0,1039735498389587  -0,3637190816595177  -1,2118024450813374  1,17969482421875  0,11688633376955976  0,34188643402387253  0,533699888229842  -1,0478068992083132  21,715625  411,81549804687484  20,293237741840873  -0,03032223369858892  -0,8712415429550591  27,5425  241,39764687499996  15,53697676110124  0,19973713337788207  -0,98880285253927  -25,643125  531,9687730468745  23,064448249348487  1,2041054510303577  0,5576924556026053
108  -0,2980859375  0,5157685457706451  0,7181702763068415  -1,3017694551632866  0,5590274814264795  0,31932373046875  0,018709315508604045  0,13678199994372084  1,6753243394564172  1,9049053786568741  1,6022607421875  0,748858664059639  0,8653662022864302  0,7750685045458416  -0,8986753211055873  -8,561875  3301,509179296876  57,458760683614436  -0,7242421179314926  2,665909078368675  -36,35125  2891,0845140625006  53,768806143176555  -1,8743833087579598  3,0419208402846136  10,066875  1422,031348046875  37,709830920422796  0,4858828844417573  -1,4059113935387788
109  -1,42373046875  0,08243505597114559  0,28711505702617823  -0,8651540949863131  0,5630658928530963  0,17300537109375  0,04315264541506767  0,2077321482464081  0,3858320018000075  -0,3432274806558935  1,12546142578125  0,47398457872271527  0,6884653794656019  0,8580712795144171  0,10064729153320595  -57,92  3796,0469593749995  61,612068293273516  0,691363924170236  0,26699709970141683  -200,3975  4866,425196875001  69,75976775244455  0,2502142374999379  -0,8508447556753014  -22,884375  2597,168466796876  50,96242210488897  -0,722417625116504  -0,2963443864437223
110  -0,19765380859375  0,12807747375369072  0,3578791328838421  -0,47855456609863434  -1,0782323773494  0,09044921875  0,01706750450134278  0,13064265957696505  0,8066949502625972  -0,43170463847549057  0,17759521484375  0,026566278046369542  0,16299165023512568  0,3258398888171756  -1,3489063481852543  -9,2825  414,74402187500004  20,36526508236512  -0,5546829840211419  -0,2688902282373258  -85,544375  4047,690413671876  63,621461895117406  -0,5172181137977127  -0,9143577665866882  -7,95625  21,696601562500003  4,657961094996394  -0,2657170414906358  -0,6136518000953091
111  0,241025390625  0,005351429128646854  0,07315346286162298  0,4058708914569987  -0,2488726626798452  -0,00515380859375  0,005517032021284102  0,0742767259731075  -0,9679058421917197  -0,2830077098638015  0,8031103515625  0,022758750224113448  0,15086003521182623  0,09142436671764485  -1,0508348844225375  10,151875  306,2231449218752  17,49923269523196  -0,4864817969136045  -1,0124991651044786  17,389375  78,48483242187498  8,859166576031573  1,2607243584285546  0,07984841996794145  -5,01125  34,4656546875  5,870745667076713  -0,17412432861419572  -0,666101897885254
112  -0,34086181640625  0,15519285804629335  0,39394524752342597  -0,6787316307605487  -0,8513318808431656  0,18398681640625  0,07299819337725637  0,27018177839605756  1,0986116431479787  -0,06710170534788595  0,018603515625  0,0531873095035553  0,2306237401126677  0,9444976209304423  -0,10222530161882304  -0,56  142,94858750000006  11,956110885233544  1,1482759369970774  0,7629826959894581  88,295  4228,759459374999  65,02891248802335  -0,09061111710863048  -1,456707763619947  -1,486875  184,916976171875  13,598418149618544  2,5024777888272163  5,65891160988793
113  -1,2809228515625  0,06234207417964937  0,24968394858230147  0,598526176878081  -0,7516203066507914  0,12765869140625  0,03227852808833121  0,17966226116892553  0,23167080607155882  -1,008480220143869  1,6976025390625  0,27200719211101526  0,5215430874923138  -1,0586619513761797  0,0015739451736669352  42,144375  247,72388242187492  15,739246564619124  -0,2618049949284908  -0,6570912154112727  148,823125  2721,1546917968744  52,164688169267095  -0,044068567440380076  -1,2675404703140196  26,935  612,1365562500004  24,741393579384333  -0,10408252398052074  -1,2194981899002832
114  -0,412060546875  0,0954677152633667  0,3089785029146311  -0,031001149791305298  -1,4204798180143197  0,22396484375  0,012963352823257447  0,11385672058889386  -0,32140974596102495  -1,5688971664332758  1,51515380859375  0,1026392069518567  0,3203735428400053  0,5612196017483615  -1,079910967194203  32,926875  870,7539886718744  29,50854094447698  0,32362959990547013  -0,9881574815269669  54,67875  413,7967984375002  20,341995930525112  0,47616287714948796  -0,6172203512135108  -11,426875  248,413519921875  15,761139550231608  0,11301446701682152  -1,2721243650466048
115  -0,08145751953125  0,15734233781695367  0,396664011244975  -1,2260178417225436  0,1932863959774882  0,163994140625  0,004705040550231934  0,06859329814371033  0,26267997795224163  -0,8078203923764664  1,42359619140625  0,26626843139529227  0,5160120457850691  0,7883585301429906  -1,0545400775002882  -33,020625  996,868832421875  31,573229679934155  -0,6868056876794693  -0,7170163308722568  4,854375  1459,2514105468756  38,20014935241583  -1,4255069771651199  0,2549157040977552  -5,338125  182,040085546875  13,492223150647746  0,5364909769759346  0,25281631205195243
116  -1,839033203125  0,15781402335166925  0,3972581318886616  -0,11843220128568434  -1,5614900354851309  0,0350634765625  0,04848039243221281  0,22018263426576767  -0,45802462015174794  0,25838017318627715  1,78621337890625  1,1010361374080178  1,0493026910324865  -0,9175855244580402  -0,6830178049831539  -55,22  1706,648240625  41,31159934721724  2,1317709227867683  3,9665642602723032  -209,02875  3261,284017187499  57,107652877591626  0,29688301542432544  -0,6248455944430882  -50,623125  2948,857613671875  54,30338491909942  -0,4746688567015766  -0,24044655520185954
117  -0,385185546875  0,24953151950836186  0,49953129982851113  -0,7441028380826067  -0,5803469263720609  0,20200927734375  0,09751703769564635  0,3122771808756547  0,7766172462952075  -1,0142137274885512  -0,106689453125  0,10870723366737366  0,32970780043452663  0,73121490508756  -0,6999544631266024  10,10875  1426,5699703125013  37,76996121671958  1,2596863252592552  0,7629332861429399  -97,69625  9188,140079687502  95,8547864203322  -0,7095375095964676  -0,9618821773103821  -3,0275  618,2286968749993  24,86420513257963  -0,8836518546143706  -0,6604214381873899
118  0,20327392578125  0,004155151718854901  0,06446046632514305  -0,7212921062428869  -0,16544632279774518  -0,04356689453125  0,021143103092908882  0,1454066817340554  -0,3453703324062989  -0,10894905668833355  0,8733447265625  0,015717858767509453  0,12537088484775663  -0,6450801762780644  -0,9211630753292561  11,835625  314,74848867187507  17,7411524054069  0,3197743535936788  -0,029179812237667857  -3,615625  28,42627929687498  5,331630078772812  0,4553428083343958  -0,2511189747528788  0,261875  117,67286679687498  10,84771251448318  -0,19424019310238974  -0,38203819189999777
119  -0,0620849609375  0,03346239387989042  0,1829272912385968  -0,306845157320243  -0,12094073806001537  0,08097412109375  0,01605706459879875  0,12671647327320448  0,4301344274282774  -1,479424952914669  0,1105078125  0,11657482566833495  0,34143055760774393  0,13881074158995757  -1,480818527477728  -0,79125  52,08915781250003  7,217281885342987  0,2976743222330901  -1,3051438744174286  43,664375  1984,7078636718752  44,550060198296876  1,2954738556462209  0,25982076160172163  2,789375  21,566066796875  4,643927949147682  0,502791317381503  -0,7738734605653979
120  -1,1783203125  0,08929461598396295  0,2988220473525388  0,43108539117369643  -1,3002150692495669  0,168203125  0,03294029941558838  0,18149462640967742  -0,34455731548338947  -0,4313062711333613  1,11802734375  0,3813502661228179  0,6175356395567935  -0,14746673467195107  -1,3597681424959502  23,55  501,0671093749999  22,384528348281094  -0,14577177945014802  -1,0047420628123365  175,67875  274,9369546875  16,581222955123064  0,39179272976038887  -0,7244720478307611  19,19125  244,1533453124999  15,625407044698065  1,0828172809015075  0,13833742245560288
121  -1,0134716796875  0,0729362635374069  0,2700671463495827  0,49090582430733304  -1,1506168513278885  -0,03994384765625  0,014080660218000413  0,11866195775395083  -0,07547273298879142  -0,25814135174466646  1,82947998046875  0,030483119934797277  0,17459415779113938  -0,7201985318806285  -0,9465587077078541  0,239375  582,4318011718751  24,13362387151741  1,1632156918018843  0,41193443078740044  89,93  1752,64244375  41,8645726569614  -0,38487551509958096  -1,2080085164922971  3,46625  285,5604234375  16,8985331741397  -0,3937584456686853  -0,9782591325319299
122  0,03471923828125  0,040909183377027494  0,20226018732570059  -0,6543252071695196  -0,6376517483768827  0,0241357421875  0,002406028532981873  0,04905128472305158  -0,17155235615683487  -1,2960571639535956  0,938271484375  0,03612201538085937  0,19005792638261465  0,7952524624400155  -0,6515640145963695  10,208125  722,4823480468751  26,879031754266656  0,4711364093837715  -1,3163985878947886  -5,23125  153,05300781250014  12,371459405118708  -0,365425635729644  -0,8251571747926745  -5,554375  551,7980980468751  23,49038309706496  0,26693436030931134  -1,5150834332267806
123  -0,99440185546875  0,6561478784739971  0,8100295540744159  0,23579188113797145  -1,4293785723808714  0,30058837890625  0,08957321321368218  0,2992878434111252  -0,5524486453420482  -1,2221397309426085  2,13625244140625  0,35921122800707844  0,5993423295638965  -0,6522850501861759  -0,8502815954982768  -11,04125  7875,662439062505  88,74492908928659  0,3905387729594943  -0,850582729538711  -99,608125  8098,219519921879  89,99010790037913  -0,15881511578754176  -1,7162210306018395  10,06875  543,7384765624998  23,31820054297715  0,22384831325934987  -0,7971467268099532
124  -1,26012939453125  0,29362906395792954  0,5418755059586376  0,03763994069410922  -1,3326092495196284  0,16557373046875  0,11838520013689997  0,34407150439538  -1,2821392539703902  0,6158350420165513  0,50991943359375  0,3565991457164288  0,5971592297841748  0,9041611568981365  -0,5980066672821902  -26,70875  3218,046267187497  56,72782621595417  0,08212058772000355  -0,6666358882754535  -196,548125  1626,6873324218757  40,33221209432822  0,5164986204818033  -1,2063993132964912  -22,325  2151,935859375003  46,388962689146254  -1,1170166212149482  0,3218941916989979
125  0,1259130859375  0,04631019785404205  0,21519804333228043  -0,852867800378834  -0,2784788885669327  -0,0230224609375  0,0057284051179885805  0,07568622806025269  0,05761183589343118  -0,3185148318225455  0,2604345703125  0,14217802002429958  0,3770650076900528  0,20496507823327964  -1,1970070432410609  -8,505625  153,95656992187503  12,407923674889165  -0,006480783466546963  -0,49140046826883  -26,618125  2224,4282730468753  47,163844977343345  -0,2141287014916134  -0,9659005902626556  -4,099375  111,95555429687498  10,580905173796568  0,17689425632669342  -0,3408440405027009
126  0,122734375  0,008798997497558591  0,09380297168831375  -0,24757677765958888  -0,8823511107869999  -0,0019189453125  0,005697072768211365  0,07547895579703899  1,4255985360968144  1,2285508127271418  0,5173046875  0,19781425867080699  0,44476314895774244  -0,5574192907553258  -1,1017405973659038  3,27375  114,22162343749994  10,68745168117732  -0,20834100457346952  -1,5216848282964772  18,66875  246,4236328125  15,6978862530119  0,7596740472910378  0,4579922850646492  -2,01875  49,75652343749999  7,053830408898416  -0,6571033367044924  -0,556116307781688
127  -0,85167724609375  0,23099895412325835  0,48062350558754235  0,15441506223579482  -1,4662612260807726  0,35002197265625  0,06743116461634634  0,2596751135868556  1,1469144068821164  0,5022309441276196  0,474384765625  0,43053555569648744  0,6561520827494853  0,45191149424978155  -1,1200843055768577  21,57625  1587,6833265625  39,84574414617576  0,49808623238474303  0,8414402570220507  154,5925  993,4258187500001  31,518658263796702  -0,8278340105044102  0,06776176490860886  6,663125  504,1236636718752  22,452698360595218  1,5868631826410917  2,335595227087362
128  -1,2211962890625  0,03667494652271271  0,19150704039985766  0,31859529389592056  -0,817652723400955  -0,0700439453125  0,02986315906047819  0,17280960349609678  -0,8698600980996674  -0,4718486550619052  1,92298583984375  0,017564527243375785  0,13253123119995447  0,35605525621601203  -0,9070035087229349  34,595  977,5522250000005  31,26583158977225  -1,381235325156283  2,435578605489357  130,849375  737,2162574218751  27,1517266011183  -0,40249035996201793  -1,247698243093431  22,00625  1309,9458984374996  36,19317474935709  0,57044027867938  -0,7161149372599938
129  -0,0465673828125  0,12199050738811484  0,3492713950327379  -0,753879057744116  -0,6186388757583106  0,07178466796875  0,002450985258817674  0,049507426299674216  0,2928844471582787  -0,8342949406828897  1,19710693359375  0,09304469153285033  0,3050322794932535  0,9661019245434085  -0,05107223338464317  15,689375  564,9327699218749  23,768314410615552  -0,04693024749910166  -0,9170985112709  25,323125  320,30836367187493  17,897160771247346  0,6940255305781929  0,32731846590498614  -32,121875  53,409716796875024  7,308195180540475  -0,15338473671564454  -0,7214350630018567
130  -0,78556396484375  0,5808524335086347  0,7621367551224877  -0,15750613967278365  -1,4001141914059334  0,18223388671875  0,032546688622236246  0,18040700824035702  -1,1817377697898248  0,37490896355140313  1,91204833984375  0,23688460513949394  0,4867079259057674  -0,2453943679687109  -1,2934849429559232  -27,224375  1629,6725855468758  40,36920342967986  -0,2443358270077176  -0,847992570901182  -68,5825  5355,719834375001  73,1827837293376  -0,10536325644511364  -1,2266029087667196  -9,155625  653,0062886718755  25,553987725438773  -0,3517927304373229  -1,1221133729032156
131  -1,60143310546875  0,22814629966616629  0,47764662635275285  0,4770091478905024  -1,2250627212772711  0,08113037109375  0,08366390549540523  0,2892471356736402  -0,42876619731429594  -1,1098259038506244  0,97560791015625  0,9411200822532172  0,970113437827359  0,7976687369051055  -0,665065626832738  -16,86625  4129,6829703124995  64,2626094265748  -0,3255668216222392  -0,5368344580075153  -252,2775  4286,899087499999  65,47441551858252  0,030504334154706315  -1,2204909776531316  -14,84125  1892,7645640624992  43,505914127420645  -1,8136185938835856  3,813302074175052
132  -0,02037109375  0,10004366912841793  0,31629680543505007  -0,4419031860524888  -1,3014173749069553  0,0706201171875  0,01478748157024385  0,12160378929229076  1,1911562332059171  0,5870872249432857  0,1375634765625  0,08049064805507657  0,28370873806613106  0,29718296536621763  -1,2588074857671836  -8,273125  76,00262929687497  8,717948686295129  0,5637132061205476  -0,8188796656711532  -53,35375  2971,517517187499  54,51162735772524  -0,9641797677452966  0,343795458798295  2,144375  79,09606992187496  8,893597130625771  -0,7783767786949446  -0,03443520067652095
133  0,30717529296875  0,002986230486631394  0,05464641330070432  -1,1950365975116746  1,576669022076075  -0,0456494140625  0,0043371557950973505  0,06585708614186746  0,17836337336617397  -0,6348799157859149  0,69625244140625  0,03597814127802847  0,18967904807339284  -0,5816863249932006  -1,2278530588935774  11,1275  173,22483749999995  13,161490702044352  -0,29052159036037595  -0,9094824742546743  15,68125  102,12464843750001  10,105674071406618  0,012738725471860297  -0,6714357036845064  -2,833125  61,18430117187501  7,822039450928064  -0,8354164851667752  -0,37374975429915525
134  -0,57945556640625  0,3391994015872477  0,5824082774027578  -0,6979511834640231  -0,8835342214423609  0,1854931640625  0,0077678401231765755  0,0881353511547811  0,6971162834064565  -0,9694997020894309  -0,05218017578125  0,08170519573092463  0,28584120719540185  0,9305708174227033  0,4925390992610117  15,955625  199,3194761718751  14,118054971272604  0,27408494836236225  -0,3163401070374712  126,26  5291,348025000003  72,74165261389105  0,2805377699037695  -1,2532904792451869  -18,25  336,36609375  18,340286086918056  -0,9092666913288869  -0,31628886894402264
135  -1,5609716796875  0,031817607426643385  0,17837490694221367  0,5833182196298419  -0,33852118099779727  0,0937353515625  0,07980000474452972  0,28248894623423715  0,6317332170338422  -0,9255781009343433  1,92453857421875  0,144441143387556  0,38005413218060924  -0,12620302761193958  -0,5764429290718489  24,70625  605,1642578124994  24,600086540752237  1,2455486983760895  0,35529112982666833  196,57875  2146,367001562499  46,3289002844067  0,18865188284793444  -1,2422726908056352  16,5575  1146,4553656249996  33,8593467985577  -0,5950141044376615  -0,40854537095112864
136  -0,28046142578125  0,2703714821994306  0,5199725783148863  -0,20762998340473957  -1,2580283980764795  0,2362939453125  0,007957829260826109  0,08920666601115697  -0,47876753647165643  2,6630609756378423  1,45435546875  0,20644888510704035  0,45436646564974437  0,7492211752565472  -1,1437251613639894  4,675625  397,83075742187486  19,945695210292243  -0,7727302816529023  0,5727930132461871  32,865  1517,3223218750004  38,952821744708054  1,4778306051674388  0,9290267919134836  -12,534375  215,68776367187508  14,686312119517108  -0,2695355584969365  -0,8027292884368546
137  -0,7606494140625  0,7511796030759812  0,8667061803610155  -0,2794964273476734  -1,4115886209865165  0,21813232421875  0,005691493099927902  0,07544198499461624  0,33685973549255427  -0,5668243257898276  1,83873291015625  0,2932997266948224  0,5415715342360807  -0,10083527947984666  -1,5276607386565522  -52,58  646,1724281249999  25,419921874879943  0,7873643779995158  -0,019784700480491857  -73,2775  5554,207134375  74,5265532167898  -0,4639514731754034  -0,9936856389344992  13,370625  125,90517617187498  11,220747576337104  0,1347614052698656  -1,1632417812302287
138  -1,57200439453125  0,24052114517092704  0,4904295516900741  0,45633884441012496  -1,3118982950339424  0,07992919921875  0,09350961315035818  0,30579341580609315  -1,0819285025399412  1,2498558059409373  0,8703515625  0,541952963972092  0,7361745472183157  0,27248530496671086  -1,3775121087188082  -33,283125  1320,4930824218748  36,33858943907805  -0,2778084602373031  -0,5545147004454529  -225,25  1209,537265625  34,778402286836005  0,8050141124109103  -0,48424493163594606  -29,049375  696,1571324218752  26,38478979302043  -0,8502451807254939  1,235568217036361
139  0,0247314453125  0,07687526285648354  0,27726388667924917  -1,068215196405661  0,029931303706874246  0,08195556640625  0,004812628859281538  0,06937311337457429  0,25276762018486904  -0,8771171812526322  0,1445849609375  0,14616617987155917  0,3823168579484289  0,14526932255887792  -1,2339808578968319  17,086875  174,4084292968751  13,206378356569795  0,46433457796235544  -0,3204580865443414  -51,1925  3629,8545062499993  60,24827388606249  -0,71089309877521  -0,7696901837551415  -14,884375  111,14159179687498  10,542371260626092  -0,758071837458325  -0,5374562883977299
140  0,09947265625  0,02588620343208314  0,16089189983365582  -0,6922071775317242  -0,6887965758518924  0,05104736328125  0,006862220877408982  0,08283852290697234  0,10042323719427566  -1,2052429175614823  0,499169921875  0,09499840378761291  0,30821811073915323  -0,41127889634676257  -0,7094308384772607  0,87625  722,8044515625  26,88502281126985  -0,942667626939088  -0,441408251398006  26,155  195,10331875000003  13,967938958557918  -0,162851977167337  -1,6988158950760501  4,21625  82,37776718749996  9,076219873245687  -0,15977586357240245  -0,9845485264652343
141  -1,02104248046875  0,1869503530204298  0,4323775584144369  0,31447422864742003  -1,2603409931286  0,15990234375  0,04557027926445009  0,21347196364967952  -0,2569432085703198  -0,4858799067588704  0,81066650390625  0,8162198787868025  0,903448880007498  0,08174255541005579  -1,636543283845254  48,765625  2734,513935546875  52,29258011942875  -0,3680960500158335  -1,195460706527605  164,27875  3073,7468296874977  55,441381924402805  -0,29904306740681774  -0,9927522145695238  18,609375  301,404951171875  17,36101814905667  -0,2784629459338149  -0,004186942380850489
142  -0,99892822265625  0,0981838260829449  0,313342984735489  0,26611274448169037  -1,1728056149945782  0,3687255859375  0,01333707988262176  0,11548627573275433  -1,081967559334721  2,2996055235429926  1,84515380859375  0,06531586691737175  0,2555696909208362  -0,9660181984122264  -0,3282815071654368  48,896875  158,15174804687481  12,575839854533566  -0,4049598806150956  -0,9473013251625337  92,95875  1483,8955640624997  38,52136503373809  0,35275723117305247  -1,1453070257724423  -13,38375  188,06718906250003  13,713759114936357  -0,30591310546204903  -1,1715855185192234
143  0,01922607421875  0,03510087057948112  0,18735226334229624  -0,7578292323370566  -0,5537503662295955  0,3525830078125  0,001398340916633606  0,03739439686147653  0,8652378000115895  0,31838407212246533  1,06537353515625  0,020192295140027995  0,14209959584751813  -0,07420312713359015  -0,6189172099202742  2,468125  439,4036324218747  20,961956788951614  -0,6087847424681345  -0,4376029034935369  29,48125  311,35910156250014  17,64537054194386  -0,06989571190488411  -1,430637406574849  -14,656875  195,73081992187494  13,990383122769545  -0,017525468523063054  -1,1190129543712626
