time,acc_x,acc_y,acc_z,gyro_x,gyro_y,gyro_z,temp
1,0.0,0.0,0.0,0.0,0.0,0.0,0.0
3,0.0,0.0,0.0,0.0,0.0,0.0,0.0
4,0.0,0.0,0.0,0.0,0.0,0.0,0.0
6,0.0,0.0,0.0,0.0,0.0,0.0,0.0
8,0.0,0.0,0.0,0.0,0.0,0.0,0.0
10,0.0,0.0,0.0,0.0,0.0,0.0,0.0
11,0.0,0.0,0.0,0.0,0.0,0.0,0.0
13,0.0,0.0,0.0,0.0,0.0,0.0,0.0
15,0.0,0.0,0.0,0.0,0.0,0.0,0.0
17,0.0,0.0,0.0,0.0,0.0,0.0,0.0
18,0.0,0.0,0.0,0.0,0.0,0.0,0.0
20,0.0,0.0,0.0,0.0,0.0,0.0,0.0
22,0.0,0.0,0.0,0.0,0.0,0.0,0.0
24,0.0,0.0,0.0,0.0,0.0,0.0,0.0
25,0.0,0.0,0.0,0.0,0.0,0.0,0.0
27,0.0,0.0,0.0,0.0,0.0,0.0,0.0
29,0.0,0.0,0.0,0.0,0.0,0.0,0.0
31,0.0,0.0,0.0,0.0,0.0,0.0,0.0
33,0.0,0.0,0.0,0.0,0.0,0.0,0.0
35,0.0,0.0,0.0,0.0,0.0,0.0,0.0
36,0.0,0.0,0.0,0.0,0.0,0.0,0.0
38,0.0,0.0,0.0,0.0,0.0,0.0,0.0
40,0.0,0.0,0.0,0.0,0.0,0.0,0.0
42,0.0,0.0,0.0,0.0,0.0,0.0,0.0
44,0.0,0.0,0.0,0.0,0.0,0.0,0.0
45,0.0,0.0,0.0,0.0,0.0,0.0,0.0
47,0.0,0.0,0.0,0.0,0.0,0.0,0.0
49,0.0,0.0,0.0,0.0,0.0,0.0,0.0
51,0.0,0.0,0.0,0.0,0.0,0.0,0.0
52,0.0,0.0,0.0,0.0,0.0,0.0,0.0
54,0.0,0.0,0.0,0.0,0.0,0.0,0.0
56,0.0,0.0,0.0,0.0,0.0,0.0,0.0
58,0.0,0.0,0.0,0.0,0.0,0.0,0.0
59,0.0,0.0,0.0,0.0,0.0,0.0,0.0
61,0.0,0.0,0.0,0.0,0.0,0.0,0.0
63,0.0,0.0,0.0,0.0,0.0,0.0,0.0
65,0.0,0.0,0.0,0.0,0.0,0.0,0.0
67,0.0,0.0,0.0,0.0,0.0,0.0,0.0
69,0.0,0.0,0.0,0.0,0.0,0.0,0.0
70,0.0,0.0,0.0,0.0,0.0,0.0,0.0
72,0.0,0.0,0.0,0.0,0.0,0.0,0.0
74,0.0,0.0,0.0,0.0,0.0,0.0,0.0
76,0.0,0.0,0.0,0.0,0.0,0.0,0.0
77,0.0,0.0,0.0,0.0,0.0,0.0,0.0
79,0.0,0.0,0.0,0.0,0.0,0.0,0.0
81,0.0,0.0,0.0,0.0,0.0,0.0,0.0
83,0.0,0.0,0.0,0.0,0.0,0.0,0.0
85,0.0,0.0,0.0,0.0,0.0,0.0,0.0
86,0.0,0.0,0.0,0.0,0.0,0.0,0.0
88,0.0,0.0,0.0,0.0,0.0,0.0,0.0
90,0.0,0.0,0.0,0.0,0.0,0.0,0.0
92,0.0,0.0,0.0,0.0,0.0,0.0,0.0
93,0.0,0.0,0.0,0.0,0.0,0.0,0.0
95,0.0,0.0,0.0,0.0,0.0,0.0,0.0
97,-5.230712890625,2.960205078125,1.24658203125,434.1875,259.0,441.5625,34.921875
99,-5.230712890625,2.960205078125,1.24658203125,434.1875,259.0,441.5625,34.921875
101,7.999755859375,0.865478515625,-8.0,-2048.0,384.5625,-2048.0,34.921875
103,7.999755859375,0.865478515625,-8.0,-2048.0,384.5625,-2048.0,34.921875
105,7.999755859375,0.865478515625,-8.0,-2048.0,-2047.4375,-2048.0,34.921875
107,7.999755859375,-8.0,7.999755859375,-1504.625,-2048.0,-2048.0,34.921875
109,7.999755859375,-8.0,7.999755859375,-1504.625,-2048.0,-2048.0,34.921875
111,1.1884765625,-0.0859375,-0.17822265625,-5.0625,-19.125,-6.0625,34.921875
112,1.1884765625,-0.0859375,-0.17822265625,-5.0625,-19.125,-6.0625,34.921875
114,1.173583984375,-0.07666015625,-0.17919921875,-4.5,-22.0,-8.625,34.921875
116,1.173583984375,-0.07666015625,-0.17919921875,-4.5,-22.0,-8.625,34.921875
118,1.173583984375,-0.07666015625,-0.17919921875,-4.5,-22.0,-8.625,34.921875
121,1.15625,-0.068359375,-0.182861328125,-4.75,-25.25,-11.0625,34.921875
123,1.15625,-0.068359375,-0.182861328125,-4.75,-25.25,-11.0625,34.921875
124,1.136962890625,-0.066650390625,-0.180419921875,-6.6875,-29.375,-13.25,35.02734375
126,1.136962890625,-0.066650390625,-0.180419921875,-6.6875,-29.375,-13.25,35.02734375
128,1.122314453125,-0.070068359375,-0.176513671875,-8.1875,-33.4375,-15.125,35.02734375
130,1.122314453125,-0.070068359375,-0.176513671875,-8.1875,-33.4375,-15.125,35.02734375
132,1.111572265625,-0.072998046875,-0.17578125,-9.375,-37.25,-16.4375,35.02734375
134,1.111572265625,-0.072998046875,-0.17578125,-9.375,-37.25,-16.4375,35.02734375
136,1.111572265625,-0.072998046875,-0.17578125,-10.5625,-41.5,-17.5,35.02734375
138,1.100341796875,-0.06689453125,-0.17822265625,-10.5625,-41.5,-17.5,35.02734375
140,1.100341796875,-0.06689453125,-0.17822265625,-10.5625,-41.5,-17.5,35.02734375
142,1.08740234375,-0.053466796875,-0.18408203125,-12.375,-45.8125,-18.0625,35.02734375
144,1.08740234375,-0.053466796875,-0.18408203125,-12.375,-45.8125,-18.0625,35.02734375
146,1.070068359375,-0.0419921875,-0.19189453125,-14.0625,-50.0,-18.125,35.02734375
148,1.070068359375,-0.0419921875,-0.19189453125,-14.0625,-50.0,-18.125,35.02734375
150,1.048828125,-0.032958984375,-0.20654296875,-15.5625,-53.4375,-17.625,35.02734375
152,1.048828125,-0.032958984375,-0.20654296875,-15.5625,-53.4375,-17.625,35.02734375
154,1.048828125,-0.032958984375,-0.20654296875,-15.5625,-53.4375,-16.375,35.02734375
156,1.0263671875,-0.022705078125,-0.2255859375,-16.5625,-56.0625,-16.375,35.02734375
157,1.0263671875,-0.022705078125,-0.2255859375,-16.5625,-56.0625,-16.375,35.02734375
159,1.003662109375,-0.0185546875,-0.24951171875,-17.5625,-58.0625,-14.9375,35.02734375
161,1.003662109375,-0.0185546875,-0.24951171875,-17.5625,-58.0625,-14.9375,35.02734375
164,0.980712890625,-0.022705078125,-0.274169921875,-18.6875,-59.5,-13.5,35.02734375
166,0.980712890625,-0.022705078125,-0.274169921875,-18.6875,-59.5,-13.5,35.02734375
168,0.95947265625,-0.030517578125,-0.29931640625,-19.875,-60.3125,-12.375,35.02734375
169,0.95947265625,-0.030517578125,-0.29931640625,-19.875,-60.3125,-12.375,35.02734375
172,0.95947265625,-0.030517578125,-0.29931640625,-21.1875,-59.6875,-11.375,35.02734375
173,0.94091796875,-0.037353515625,-0.324462890625,-21.1875,-59.6875,-11.375,35.02734375
175,0.94091796875,-0.037353515625,-0.324462890625,-21.1875,-59.6875,-11.375,35.02734375
177,0.925048828125,-0.0380859375,-0.337158203125,-22.25,-57.6875,-10.375,35.02734375
179,0.925048828125,-0.0380859375,-0.337158203125,-22.25,-57.6875,-10.375,35.02734375
181,0.916748046875,-0.03369140625,-0.3466796875,-22.8125,-54.375,-9.3125,35.02734375
183,0.916748046875,-0.03369140625,-0.3466796875,-22.8125,-54.375,-9.3125,35.02734375
186,0.911865234375,-0.029052734375,-0.354248046875,-23.25,-51.1875,-8.4375,35.02734375
187,0.911865234375,-0.029052734375,-0.354248046875,-23.25,-51.1875,-8.4375,35.02734375
189,0.90966796875,-0.02685546875,-0.357421875,-23.0625,-48.375,-8.4375,35.02734375
191,0.90966796875,-0.02685546875,-0.357421875,-23.0625,-48.375,-8.4375,35.02734375
193,0.90966796875,-0.02685546875,-0.357421875,-23.0625,-48.375,-8.4375,35.02734375
195,0.9130859375,-0.026123046875,-0.35302734375,-22.6875,-46.25,-9.1875,35.02734375
197,0.9130859375,-0.026123046875,-0.35302734375,-22.6875,-46.25,-9.1875,35.02734375
199,0.925537109375,-0.015869140625,-0.345947265625,-22.0625,-44.6875,-10.8125,35.02734375
201,0.925537109375,-0.015869140625,-0.345947265625,-22.0625,-44.6875,-10.8125,35.02734375
203,0.937255859375,0.001953125,-0.33984375,-20.25,-43.0625,-12.625,35.02734375
205,0.937255859375,0.001953125,-0.33984375,-20.25,-43.0625,-12.625,35.02734375
207,0.9453125,0.01904296875,-0.32958984375,-17.1875,-41.3125,-15.0,35.02734375
209,0.9453125,0.01904296875,-0.32958984375,-17.1875,-41.3125,-15.0,35.02734375
211,0.9453125,0.01904296875,-0.32958984375,-17.1875,-41.3125,-15.0,35.02734375
213,0.9541015625,0.033447265625,-0.31591796875,-13.3125,-40.3125,-18.0625,35.02734375
215,0.9541015625,0.033447265625,-0.31591796875,-13.3125,-40.3125,-18.0625,35.02734375
217,0.967041015625,0.0458984375,-0.307373046875,-9.3125,-40.1875,-21.1875,35.02734375
219,0.967041015625,0.0458984375,-0.307373046875,-9.3125,-40.1875,-21.1875,35.02734375
221,0.98193359375,0.056640625,-0.302978515625,-5.5,-40.9375,-24.25,35.02734375
223,0.98193359375,0.056640625,-0.302978515625,-5.5,-40.9375,-24.25,35.02734375
224,0.98193359375,0.056640625,-0.302978515625,-5.5,-40.9375,-24.25,35.02734375
226,0.99853515625,0.069091796875,-0.295166015625,-2.5625,-42.0,-26.6875,35.02734375
229,0.99853515625,0.069091796875,-0.295166015625,-2.5625,-42.0,-26.6875,35.02734375
231,1.01416015625,0.07470703125,-0.28662109375,-0.5,-42.75,-28.4375,35.02734375
233,1.01416015625,0.07470703125,-0.28662109375,-0.5,-42.75,-28.4375,35.02734375
235,1.029296875,0.07861328125,-0.2744140625,1.1875,-43.6875,-29.875,35.02734375
236,1.029296875,0.07861328125,-0.2744140625,1.1875,-43.6875,-29.875,35.02734375
238,1.047119140625,0.08349609375,-0.252685546875,2.4375,-44.875,-30.625,35.02734375
240,1.047119140625,0.08349609375,-0.252685546875,2.4375,-44.875,-30.625,35.02734375
242,1.047119140625,0.08349609375,-0.252685546875,2.4375,-44.875,-30.625,35.02734375
244,1.067138671875,0.09619140625,-0.232666015625,3.375,-46.4375,-29.875,35.02734375
246,1.067138671875,0.09619140625,-0.232666015625,3.375,-46.4375,-29.875,35.02734375
248,1.083251953125,0.1162109375,-0.225830078125,4.5,-48.625,-27.75,35.02734375
250,1.083251953125,0.1162109375,-0.225830078125,4.5,-48.625,-27.75,35.02734375
253,1.087890625,0.129150390625,-0.22607421875,6.0,-50.875,-24.875,35.02734375
255,1.087890625,0.129150390625,-0.22607421875,6.0,-50.875,-24.875,35.02734375
257,1.0810546875,0.12451171875,-0.228271484375,7.8125,-53.3125,-22.25,35.02734375
258,1.0810546875,0.12451171875,-0.228271484375,7.8125,-53.3125,-22.25,35.02734375
260,1.06640625,0.09521484375,-0.228515625,9.1875,-55.375,-19.5625,35.02734375
262,1.06640625,0.09521484375,-0.228515625,9.1875,-55.375,-19.5625,35.02734375
264,1.06640625,0.09521484375,-0.228515625,9.1875,-55.375,-19.5625,35.02734375
266,1.05078125,0.05859375,-0.234375,9.375,-56.875,-16.5625,35.01953125
268,1.05078125,0.05859375,-0.234375,9.375,-56.875,-16.5625,35.01953125
270,1.03759765625,0.0322265625,-0.250732421875,9.0,-57.4375,-13.9375,35.01953125
272,1.03759765625,0.0322265625,-0.250732421875,9.0,-57.4375,-13.9375,35.01953125
274,1.017822265625,0.016357421875,-0.267578125,8.1875,-57.125,-11.875,35.01953125
276,1.017822265625,0.016357421875,-0.267578125,8.1875,-57.125,-11.875,35.01953125
278,1.017822265625,0.0048828125,-0.2822265625,7.8125,-56.0625,-10.75,35.01953125
280,1.002197265625,0.0048828125,-0.2822265625,7.8125,-56.0625,-10.75,35.01953125
282,1.002197265625,0.0048828125,-0.2822265625,7.8125,-56.0625,-10.75,35.01953125
284,0.996826171875,-0.001708984375,-0.2900390625,8.125,-54.5625,-10.3125,35.01953125
285,0.996826171875,-0.001708984375,-0.2900390625,8.125,-54.5625,-10.3125,35.01953125
287,0.999755859375,-0.0029296875,-0.2900390625,8.9375,-51.8125,-10.125,35.01953125
289,0.999755859375,-0.0029296875,-0.2900390625,8.9375,-51.8125,-10.125,35.01953125
291,0.999755859375,-0.006103515625,-0.290283203125,10.3125,-48.3125,-9.6875,35.01953125
293,1.001708984375,-0.006103515625,-0.290283203125,10.3125,-48.3125,-9.6875,35.01953125
296,0.99560546875,-0.013916015625,-0.2919921875,12.0625,-44.375,-8.625,35.01953125
298,0.99560546875,-0.013916015625,-0.2919921875,12.0625,-44.375,-8.625,35.01953125
299,0.99560546875,-0.013916015625,-0.2919921875,12.0625,-44.375,-8.625,35.01953125
301,0.98193359375,-0.02978515625,-0.29296875,13.6875,-40.3125,-7.5625,35.01953125
303,0.98193359375,-0.02978515625,-0.29296875,13.6875,-40.3125,-7.5625,35.01953125
305,0.979736328125,-0.05322265625,-0.28759765625,14.0,-36.9375,-7.5625,35.01953125
307,0.979736328125,-0.05322265625,-0.28759765625,14.0,-36.9375,-7.5625,35.01953125
309,0.989990234375,-0.0732421875,-0.2802734375,13.4375,-34.375,-7.75,35.01953125
311,0.989990234375,-0.0732421875,-0.2802734375,13.4375,-34.375,-7.75,35.01953125
313,0.989990234375,-0.0732421875,-0.2802734375,13.4375,-34.375,-7.75,35.01953125
315,0.993408203125,-0.078369140625,-0.27978515625,12.8125,-31.9375,-7.4375,35.01953125
317,0.993408203125,-0.078369140625,-0.27978515625,12.8125,-31.9375,-7.4375,35.01953125
319,0.981201171875,-0.075439453125,-0.287109375,12.75,-29.5625,-7.25,35.01953125
321,0.981201171875,-0.075439453125,-0.287109375,12.75,-29.5625,-7.25,35.01953125
323,0.962158203125,-0.07421875,-0.295654296875,13.4375,-27.75,-7.4375,35.01953125
325,0.962158203125,-0.07421875,-0.295654296875,13.4375,-27.75,-7.4375,35.01953125
327,0.948974609375,-0.080078125,-0.2939453125,14.1875,-26.75,-8.1875,35.01953125
329,0.948974609375,-0.080078125,-0.2939453125,14.1875,-26.75,-8.1875,35.01953125
331,0.948974609375,-0.080078125,-0.2939453125,14.1875,-26.75,-8.1875,35.01953125
333,0.942138671875,-0.092041015625,-0.282470703125,14.5625,-27.1875,-10.125,35.01953125
335,0.942138671875,-0.092041015625,-0.282470703125,14.5625,-27.1875,-10.125,35.01953125
337,0.939453125,-0.107666015625,-0.27099609375,14.0,-29.0,-12.125,35.01953125
339,0.939453125,-0.107666015625,-0.27099609375,14.0,-29.0,-12.125,35.01953125
341,0.934814453125,-0.114501953125,-0.263427734375,12.875,-31.0,-13.5,35.01953125
343,0.934814453125,-0.114501953125,-0.263427734375,12.875,-31.0,-13.5,35.01953125
345,0.927490234375,-0.111572265625,-0.2548828125,10.9375,-32.4375,-14.6875,35.01953125
347,0.927490234375,-0.111572265625,-0.2548828125,10.9375,-32.4375,-14.6875,35.01953125
349,0.927490234375,-0.111572265625,-0.2548828125,10.9375,-32.4375,-14.6875,35.01953125
351,0.92529296875,-0.097900390625,-0.25146484375,8.5625,-34.0625,-15.25,35.01953125
353,0.92529296875,-0.097900390625,-0.25146484375,8.5625,-34.0625,-15.25,35.01953125
354,0.916259765625,-0.07861328125,-0.261962890625,6.8125,-35.625,-14.9375,35.01953125
356,0.916259765625,-0.07861328125,-0.261962890625,6.8125,-35.625,-14.9375,35.01953125
358,0.898681640625,-0.0625,-0.280517578125,6.375,-36.5,-14.375,35.01953125
361,0.898681640625,-0.0625,-0.280517578125,6.375,-36.5,-14.375,35.01953125
363,0.880859375,-0.0595703125,-0.297607421875,5.75,-36.25,-14.0,35.01953125
365,0.880859375,-0.0595703125,-0.297607421875,5.75,-36.25,-14.0,35.01953125
367,0.818359375,-0.063720703125,-0.3046875,4.25,-35.375,-13.125,35.01953125
368,0.87353515625,-0.063720703125,-0.3046875,4.25,-35.375,-13.125,35.01953125
370,0.87353515625,-0.063720703125,-0.3046875,4.25,-35.375,-13.125,35.01953125
372,0.87353515625,-0.064208984375,-0.308837890625,1.4375,-34.0,-11.4375,35.01953125
374,0.87353515625,-0.064208984375,-0.308837890625,1.4375,-34.0,-11.4375,35.01953125
376,0.872802734375,-0.0517578125,-0.322998046875,-1.5625,-31.5,-8.75,35.01953125
378,0.872802734375,-0.0517578125,-0.322998046875,-1.5625,-31.5,-8.75,35.01953125
380,0.872802734375,-0.0517578125,-0.322998046875,-4.25,-28.5,-5.75,35.01953125
382,0.86474609375,-0.03369140625,-0.34423828125,-4.25,-28.5,-5.75,35.01953125
384,0.86474609375,-0.03369140625,-0.34423828125,-5.1875,-25.1875,-3.8125,35.01953125
386,0.853515625,-0.013916015625,-0.365234375,-5.1875,-25.1875,-3.8125,35.01953125
388,0.853515625,-0.013916015625,-0.365234375,-5.1875,-25.1875,-3.8125,35.01953125
390,0.84130859375,-0.00048828125,-0.369384765625,-4.875,-21.5,-3.375,35.01953125
392,0.84130859375,-0.00048828125,-0.369384765625,-4.875,-21.5,-3.375,35.01953125
394,0.838134765625,-0.006591796875,-0.34619140625,-4.4375,-18.3125,-4.125,35.01953125
395,0.838134765625,-0.006591796875,-0.34619140625,-4.4375,-18.3125,-4.125,35.01953125
397,0.838134765625,-0.006591796875,-0.34619140625,-4.4375,-18.3125,-4.125,35.01953125
399,0.859130859375,-0.02490234375,-0.3056640625,-4.1875,-15.9375,-5.625,35.01953125
401,0.859130859375,-0.02490234375,-0.3056640625,-4.1875,-15.9375,-5.625,35.01953125
403,0.88720703125,-0.02978515625,-0.272705078125,-3.625,-15.3125,-7.8125,35.01953125
406,0.88720703125,-0.02978515625,-0.272705078125,-3.625,-15.3125,-7.8125,35.01953125
408,0.9033203125,-0.020751953125,-0.25146484375,-2.1875,-16.0625,-11.4375,35.01171875
409,0.9033203125,-0.020751953125,-0.25146484375,-2.1875,-16.0625,-11.4375,35.01171875
411,0.90771484375,-0.010498046875,-0.2294921875,-0.125,-17.9375,-15.75,35.01171875
413,0.90771484375,-0.010498046875,-0.2294921875,-0.125,-17.9375,-15.75,35.01171875
415,0.90771484375,-0.010498046875,-0.20849609375,2.25,-20.0625,-20.3125,35.01171875
417,0.91748046875,-0.010009765625,-0.20849609375,2.25,-20.0625,-20.3125,35.01171875
419,0.91748046875,-0.010009765625,-0.20849609375,2.25,-20.0625,-20.3125,35.01171875
421,0.9306640625,-0.00537109375,-0.199462890625,4.8125,-22.6875,-23.75,35.01171875
423,0.9306640625,-0.00537109375,-0.199462890625,4.8125,-22.6875,-23.75,35.01171875
425,0.931396484375,0.0048828125,-0.209228515625,6.9375,-24.8125,-25.9375,35.01171875
427,0.931396484375,0.0048828125,-0.209228515625,6.9375,-24.8125,-25.9375,35.01171875
429,0.916015625,0.010986328125,-0.22509765625,7.9375,-25.9375,-26.9375,35.01171875
431,0.916015625,0.010986328125,-0.22509765625,7.9375,-25.9375,-26.9375,35.01171875
433,0.916015625,0.010986328125,-0.22509765625,7.25,-25.8125,-26.25,35.01171875
435,0.8955078125,0.011474609375,-0.2412109375,7.25,-25.8125,-26.25,35.01171875
437,0.8955078125,0.011474609375,-0.2412109375,7.25,-25.8125,-26.25,35.01171875
439,0.8828125,0.020751953125,-0.24853515625,5.0,-24.5,-23.8125,35.01171875
441,0.8828125,0.020751953125,-0.24853515625,5.0,-24.5,-23.8125,35.01171875
443,0.87939453125,0.037841796875,-0.2509765625,1.25,-22.5625,-19.4375,35.01171875
444,0.87939453125,0.037841796875,-0.2509765625,1.25,-22.5625,-19.4375,35.01171875
446,0.87939453125,0.0537109375,-0.25146484375,-2.6875,-20.4375,-13.6875,35.01171875
449,0.877685546875,0.0537109375,-0.25146484375,-2.6875,-20.4375,-13.6875,35.01171875
451,0.881103515625,0.06298828125,-0.252685546875,-6.0,-18.1875,-7.5,35.01171875
453,0.881103515625,0.06298828125,-0.252685546875,-6.0,-18.1875,-7.5,35.01171875
455,0.881103515625,0.06298828125,-0.252685546875,-8.4375,-15.6875,-1.6875,35.01171875
457,0.88671875,0.069580078125,-0.252685546875,-8.4375,-15.6875,-1.6875,35.01171875
459,0.88671875,0.069580078125,-0.252685546875,-8.4375,-15.6875,-1.6875,35.01171875
461,0.88525390625,0.07177734375,-0.254638671875,-9.5625,-12.625,3.5,35.01171875
463,0.88525390625,0.07177734375,-0.254638671875,-9.5625,-12.625,3.5,35.01171875
465,0.875,0.066650390625,-0.26220703125,-9.5625,-9.3125,7.75,35.01171875
467,0.875,0.066650390625,-0.26220703125,-9.5625,-9.3125,7.75,35.01171875
469,0.86328125,0.048828125,-0.272216796875,-8.5,-6.0625,10.25,35.01171875
471,0.86328125,0.048828125,-0.272216796875,-8.5,-6.0625,10.25,35.01171875
473,0.850341796875,0.02490234375,-0.265380859375,-8.1875,-3.0,11.375,35.01171875
475,0.850341796875,0.02490234375,-0.265380859375,-8.1875,-3.0,11.375,35.01171875
477,0.850341796875,0.02490234375,-0.265380859375,-8.1875,-3.0,11.375,35.01171875
479,0.850830078125,0.00146484375,-0.252197265625,-9.375,-0.5625,11.875,35.01171875
481,0.850830078125,0.00146484375,-0.252197265625,-9.375,-0.5625,11.875,35.01171875
483,0.855712890625,-0.0087890625,-0.248779296875,-10.875,1.8125,12.1875,35.01171875
485,0.855712890625,-0.0087890625,-0.248779296875,-10.875,1.8125,12.1875,35.01171875
487,0.849609375,-0.003662109375,-0.236572265625,-10.8125,3.9375,11.75,35.01171875
488,0.849609375,-0.003662109375,-0.236572265625,-10.8125,3.9375,11.75,35.01171875
490,0.849609375,-0.003662109375,-0.236572265625,-10.8125,5.4375,9.6875,35.01171875
492,0.83642578125,-0.0029296875,-0.22412109375,-9.0625,5.4375,9.6875,35.01171875
495,0.83642578125,-0.0029296875,-0.22412109375,-9.0625,5.4375,9.6875,35.01171875
497,0.83056640625,-0.01708984375,-0.19873046875,-7.1875,6.3125,5.875,35.01171875
499,0.83056640625,-0.01708984375,-0.19873046875,-7.1875,6.3125,5.875,35.01171875
501,0.84619140625,-0.0361328125,-0.15673828125,-6.625,5.9375,1.6875,35.01171875
502,0.84619140625,-0.0361328125,-0.15673828125,-6.625,5.9375,1.6875,35.01171875
504,0.876220703125,-0.031005859375,-0.128173828125,-7.0,4.125,-1.875,35.01171875
506,0.876220703125,-0.031005859375,-0.128173828125,-7.0,4.125,-1.875,35.01171875
508,0.876220703125,-0.031005859375,-0.128173828125,-7.0,4.125,-4.9375,35.01171875
510,0.89453125,0.000732421875,-0.1201171875,-7.1875,1.625,-4.9375,35.01171875
512,0.89453125,0.000732421875,-0.1201171875,-7.1875,1.625,-4.9375,35.01171875
514,0.895751953125,0.03369140625,-0.117431640625,-6.4375,-1.375,-7.5,35.01171875
516,0.895751953125,0.03369140625,-0.117431640625,-6.4375,-1.375,-7.5,35.01171875
518,0.89208984375,0.056396484375,-0.117919921875,-4.875,-3.8125,-9.75,35.01171875
520,0.89208984375,0.056396484375,-0.117919921875,-4.875,-3.8125,-9.75,35.01171875
522,0.896728515625,0.069091796875,-0.12353515625,-2.375,-5.8125,-11.25,35.01171875
524,0.896728515625,0.069091796875,-0.12353515625,-2.375,-5.8125,-11.25,35.01171875
526,0.896728515625,0.069091796875,-0.12353515625,-2.375,-5.8125,-11.25,35.01171875
528,0.90283203125,0.07763671875,-0.133056640625,-0.75,-6.625,-10.875,35.01171875
530,0.90283203125,0.07763671875,-0.133056640625,-0.75,-6.625,-10.875,35.01171875
531,0.902099609375,0.087890625,-0.140380859375,-1.0,-5.9375,-8.5,35.01171875
533,0.902099609375,0.087890625,-0.140380859375,-1.0,-5.9375,-8.5,35.01171875
535,0.900390625,0.096923828125,-0.144287109375,-2.875,-4.4375,-3.9375,35.01171875
538,0.900390625,0.096923828125,-0.144287109375,-2.875,-4.4375,-3.9375,35.01171875
540,0.89599609375,0.103515625,-0.1484375,-5.4375,-2.5,2.1875,35.01171875
541,0.89599609375,0.103515625,-0.1484375,-5.4375,-2.5,2.1875,35.01171875
543,0.89599609375,0.103515625,-0.1484375,-5.4375,-2.5,2.1875,35.01171875
545,0.889892578125,0.104736328125,-0.15283203125,-7.4375,-0.0625,8.6875,35.01171875
547,0.889892578125,0.104736328125,-0.15283203125,-7.4375,-0.0625,8.6875,35.01171875
549,0.878662109375,0.09765625,-0.157958984375,-8.5,2.0,14.375,35.04296875
551,0.878662109375,0.09765625,-0.157958984375,-8.5,2.0,14.375,35.04296875
553,0.874755859375,0.073974609375,-0.16015625,-8.875,3.5625,18.5625,35.04296875
555,0.874755859375,0.073974609375,-0.16015625,-8.875,3.5625,18.5625,35.04296875
557,0.8779296875,0.0400390625,-0.163330078125,-8.375,4.8125,20.5625,35.04296875
559,0.8779296875,0.0400390625,-0.163330078125,-8.375,4.8125,20.5625,35.04296875
561,0.8779296875,0.00439453125,-0.160888671875,-7.5625,6.6875,20.625,35.04296875
563,0.881591796875,0.00439453125,-0.160888671875,-7.5625,6.6875,20.625,35.04296875
565,0.881591796875,0.00439453125,-0.160888671875,-7.5625,6.6875,20.625,35.04296875
567,0.87646484375,-0.03173828125,-0.158203125,-7.6875,8.6875,19.0625,35.04296875
569,0.87646484375,-0.03173828125,-0.158203125,-7.6875,8.6875,19.0625,35.04296875
571,0.8759765625,-0.062255859375,-0.14892578125,-7.75,10.4375,15.875,35.04296875
573,0.8759765625,-0.062255859375,-0.14892578125,-7.75,10.4375,15.875,35.04296875
575,0.888671875,-0.079345703125,-0.130126953125,-7.9375,11.6875,11.5625,35.04296875
577,0.888671875,-0.079345703125,-0.130126953125,-7.9375,11.6875,11.5625,35.04296875
579,0.888671875,-0.079345703125,-0.108154296875,-8.8125,12.0625,6.875,35.04296875
581,0.909423828125,-0.0703125,-0.108154296875,-8.8125,12.0625,6.875,35.04296875
583,0.909423828125,-0.0703125,-0.108154296875,-8.8125,12.0625,6.875,35.04296875
585,0.9248046875,-0.035400390625,-0.101806640625,-9.0,11.25,2.9375,35.04296875
587,0.9248046875,-0.035400390625,-0.101806640625,-9.0,11.25,2.9375,35.04296875
589,0.923828125,-0.001708984375,-0.116943359375,-7.625,9.875,-0.25,35.04296875
591,0.923828125,-0.001708984375,-0.116943359375,-7.625,9.875,-0.25,35.04296875
593,0.90625,0.013671875,-0.128662109375,-5.5625,8.25,-3.75,35.04296875
595,0.90625,0.013671875,-0.128662109375,-5.5625,8.25,-3.75,35.04296875
597,0.90625,0.013671875,-0.128662109375,-5.5625,8.25,-6.8125,35.04296875
599,0.898681640625,0.015869140625,-0.118896484375,-4.375,6.4375,-6.8125,35.04296875
601,0.898681640625,0.015869140625,-0.118896484375,-4.375,6.4375,-6.8125,35.04296875
603,0.912109375,0.019775390625,-0.101318359375,-4.9375,3.875,-8.5,35.04296875
604,0.912109375,0.019775390625,-0.101318359375,-4.9375,3.875,-8.5,35.04296875
607,0.93115234375,0.032958984375,-0.100830078125,-5.75,1.25,-8.5,35.04296875
609,0.93115234375,0.032958984375,-0.100830078125,-5.75,1.25,-8.5,35.04296875
611,0.933837890625,0.04443359375,-0.11328125,-5.875,-0.25,-7.9375,35.04296875
613,0.933837890625,0.04443359375,-0.11328125,-5.875,-0.25,-7.9375,35.04296875
615,0.933837890625,0.03857421875,-0.127197265625,-4.4375,-0.5,-8.3125,35.04296875
616,0.918701171875,0.03857421875,-0.127197265625,-4.4375,-0.5,-8.3125,35.04296875
618,0.918701171875,0.03857421875,-0.127197265625,-4.4375,-0.5,-8.3125,35.04296875
620,0.899169921875,0.01953125,-0.12939453125,-2.0,-0.5,-10.9375,35.04296875
622,0.899169921875,0.01953125,-0.12939453125,-2.0,-0.5,-10.9375,35.04296875
624,0.892333984375,-0.00927734375,-0.128662109375,0.4375,-1.125,-15.3125,35.04296875
626,0.892333984375,-0.00927734375,-0.128662109375,0.4375,-1.125,-15.3125,35.04296875
628,0.88916015625,-0.02685546875,-0.127197265625,2.875,-1.3125,-21.0,35.04296875
630,0.88916015625,-0.02685546875,-0.127197265625,2.875,-1.3125,-21.0,35.04296875
632,0.88916015625,-0.02685546875,-0.127197265625,2.875,-1.3125,-27.75,35.04296875
634,0.888916015625,-0.03515625,-0.119384765625,5.1875,-0.875,-27.75,35.04296875
636,0.888916015625,-0.03515625,-0.119384765625,5.1875,-0.875,-27.75,35.04296875
638,0.8896484375,-0.040771484375,-0.107666015625,7.5625,-0.4375,-35.0,35.04296875
640,0.8896484375,-0.040771484375,-0.107666015625,7.5625,-0.4375,-35.0,35.04296875
642,0.89111328125,-0.036865234375,-0.094482421875,10.1875,-1.25,-42.0625,35.04296875
643,0.89111328125,-0.036865234375,-0.094482421875,10.1875,-1.25,-42.0625,35.04296875
645,0.89111328125,-0.036865234375,-0.094482421875,10.1875,-1.25,-48.375,35.04296875
647,0.89306640625,-0.02490234375,-0.093017578125,12.1875,-3.0,-48.375,35.04296875
650,0.88916015625,-0.00830078125,-0.103759765625,13.4375,-5.375,-53.0,35.04296875
652,0.88916015625,-0.00830078125,-0.103759765625,13.4375,-5.375,-53.0,35.04296875
654,0.88916015625,-0.00830078125,-0.103759765625,13.4375,-5.375,-53.0,35.04296875
656,0.883544921875,0.0048828125,-0.11376953125,13.3125,-7.5,-55.3125,35.04296875
658,0.883544921875,0.0048828125,-0.11376953125,13.3125,-7.5,-55.3125,35.04296875
660,0.88232421875,0.02783203125,-0.126708984375,11.5625,-8.9375,-55.1875,35.04296875
662,0.88232421875,0.02783203125,-0.126708984375,11.5625,-8.9375,-55.1875,35.04296875
664,0.88037109375,0.055419921875,-0.14453125,8.25,-10.0625,-52.1875,35.04296875
665,0.88037109375,0.055419921875,-0.14453125,8.25,-10.0625,-52.1875,35.04296875
667,0.88037109375,0.055419921875,-0.14453125,8.25,-10.0625,-52.1875,35.04296875
669,0.8779296875,0.07373046875,-0.164306640625,4.25,-11.0625,-46.875,35.04296875
672,0.8779296875,0.07373046875,-0.164306640625,4.25,-11.0625,-46.875,35.04296875
674,0.881103515625,0.087158203125,-0.17626953125,0.625,-11.625,-40.5625,35.04296875
676,0.881103515625,0.087158203125,-0.17626953125,0.625,-11.625,-40.5625,35.04296875
677,0.899169921875,0.0986328125,-0.177734375,-3.1875,-12.5625,-34.1875,35.04296875
679,0.899169921875,0.0986328125,-0.177734375,-3.1875,-12.5625,-34.1875,35.04296875
681,0.917724609375,0.10595703125,-0.17578125,-6.75,-13.25,-28.0,35.04296875
683,0.917724609375,0.10595703125,-0.17578125,-6.75,-13.25,-28.0,35.04296875
685,0.917724609375,0.10595703125,-0.17578125,-6.75,-13.25,-28.0,35.04296875
687,0.91845703125,0.112548828125,-0.182373046875,-10.25,-13.3125,-21.5625,35.04296875
689,0.91845703125,0.112548828125,-0.182373046875,-10.25,-13.3125,-21.5625,35.04296875
691,0.90478515625,0.114013671875,-0.197998046875,-13.1875,-12.5,-15.875,35.05078125
693,0.90478515625,0.114013671875,-0.197998046875,-13.1875,-12.5,-15.875,35.05078125
695,0.88720703125,0.105712890625,-0.21875,-15.0625,-10.6875,-11.1875,35.05078125
697,0.88720703125,0.105712890625,-0.21875,-15.0625,-10.6875,-11.1875,35.05078125
699,0.873046875,0.09326171875,-0.236572265625,-15.875,-7.625,-7.6875,35.05078125
701,0.873046875,0.09326171875,-0.236572265625,-15.875,-7.625,-7.6875,35.05078125
703,0.873046875,0.09326171875,-0.236572265625,-15.875,-7.625,-7.6875,35.05078125
705,0.873046875,0.08251953125,-0.24462890625,-15.875,-3.5,-5.9375,35.05078125
707,0.873046875,0.08251953125,-0.24462890625,-15.875,-3.5,-5.9375,35.05078125
709,0.87744140625,0.08154296875,-0.242919921875,-15.5,0.25,-5.75,35.05078125
710,0.87744140625,0.08154296875,-0.242919921875,-15.5,0.25,-5.75,35.05078125
712,0.880859375,0.087890625,-0.239013671875,-14.5,3.3125,-7.125,35.05078125
715,0.880859375,0.087890625,-0.239013671875,-14.5,3.3125,-7.125,35.05078125
717,0.8857421875,0.093017578125,-0.230712890625,-12.6875,5.875,-8.9375,35.05078125
719,0.8857421875,0.093017578125,-0.230712890625,-12.6875,5.875,-8.9375,35.05078125
721,0.8857421875,0.093017578125,-0.230712890625,-12.6875,5.875,-8.9375,35.05078125
722,0.900390625,0.0908203125,-0.208251953125,-10.4375,7.8125,-11.25,35.05078125
724,0.900390625,0.0908203125,-0.208251953125,-10.4375,7.8125,-11.25,35.05078125
726,0.9267578125,0.08447265625,-0.177490234375,-8.5625,9.1875,-13.5,35.05078125
728,0.9267578125,0.08447265625,-0.177490234375,-8.5625,9.1875,-13.5,35.05078125
730,0.96533203125,0.0830078125,-0.147705078125,-7.875,9.375,-14.5,35.05078125
732,0.96533203125,0.0830078125,-0.147705078125,-7.875,9.375,-14.5,35.05078125
734,0.96533203125,0.0830078125,-0.147705078125,-7.875,9.375,-14.5,35.05078125
736,1.000732421875,0.09228515625,-0.131591796875,-8.1875,8.8125,-14.5625,35.05078125
738,1.000732421875,0.09228515625,-0.131591796875,-8.1875,8.8125,-14.5625,35.05078125
740,1.015380859375,0.104736328125,-0.12841796875,-8.5,7.375,-14.25,35.05078125
742,1.015380859375,0.104736328125,-0.12841796875,-8.5,7.375,-14.25,35.05078125
744,1.012939453125,0.11328125,-0.131591796875,-8.25,5.8125,-14.125,35.05078125
746,1.012939453125,0.11328125,-0.131591796875,-8.25,5.8125,-14.125,35.05078125
748,1.006591796875,0.117431640625,-0.13525390625,-7.6875,4.6875,-14.0,35.05078125
750,1.006591796875,0.117431640625,-0.13525390625,-7.6875,4.6875,-14.0,35.05078125
752,1.006591796875,0.117431640625,-0.13525390625,-7.6875,4.6875,-14.0,35.05078125
753,1.01220703125,0.121337890625,-0.134033203125,-6.875,4.0625,-13.4375,35.05078125
755,1.01220703125,0.121337890625,-0.134033203125,-6.875,4.0625,-13.4375,35.05078125
757,1.02685546875,0.129150390625,-0.129150390625,-6.3125,3.5625,-12.25,35.05078125
760,1.02685546875,0.129150390625,-0.129150390625,-6.3125,3.5625,-12.25,35.05078125
762,1.03271484375,0.13818359375,-0.13037109375,-6.1875,3.1875,-10.25,35.05078125
764,1.03271484375,0.13818359375,-0.13037109375,-6.1875,3.1875,-10.25,35.05078125
765,1.022705078125,0.146728515625,-0.142578125,-6.4375,3.0,-7.9375,35.05078125
767,1.022705078125,0.146728515625,-0.142578125,-6.4375,3.0,-7.9375,35.05078125
769,1.022705078125,0.146728515625,-0.142578125,-6.4375,3.0,-7.9375,35.05078125
771,1.001708984375,0.142822265625,-0.156494140625,-6.75,2.6875,-5.5625,35.05078125
773,1.001708984375,0.142822265625,-0.156494140625,-6.75,2.6875,-5.5625,35.05078125
775,0.989501953125,0.1240234375,-0.1689453125,-7.0625,2.8125,-2.9375,35.05078125
777,0.989501953125,0.1240234375,-0.1689453125,-7.0625,2.8125,-2.9375,35.05078125
779,0.990478515625,0.103515625,-0.171142578125,-7.875,4.0625,-0.625,35.05078125
781,0.990478515625,0.103515625,-0.171142578125,-7.875,4.0625,-0.625,35.05078125
784,1.001953125,0.0869140625,-0.156982421875,-9.375,5.375,1.8125,35.05078125
786,1.001953125,0.0869140625,-0.156982421875,-9.375,5.375,1.8125,35.05078125
788,1.008544921875,0.084228515625,-0.14990234375,-10.6875,5.5625,3.3125,35.05078125
789,1.008544921875,0.084228515625,-0.14990234375,-10.6875,5.5625,3.3125,35.05078125
791,1.008544921875,0.084228515625,-0.14990234375,-10.6875,5.5625,3.3125,35.05078125
793,1.001953125,0.0830078125,-0.156494140625,-10.875,4.8125,3.4375,35.05078125
795,1.001953125,0.0830078125,-0.156494140625,-10.875,4.8125,3.4375,35.05078125
797,0.98779296875,0.07763671875,-0.17138671875,-10.3125,3.5,1.8125,35.05078125
799,0.98779296875,0.07763671875,-0.17138671875,-10.3125,3.5,1.8125,35.05078125
801,0.9775390625,0.069580078125,-0.181640625,-8.75,2.625,-0.375,35.05078125
803,0.9775390625,0.069580078125,-0.181640625,-8.75,2.625,-0.375,35.05078125
805,0.980224609375,0.060302734375,-0.1884765625,-7.625,2.125,-2.6875,35.05078125
807,0.980224609375,0.060302734375,-0.1884765625,-7.625,2.125,-2.6875,35.05078125
809,0.980224609375,0.060302734375,-0.1884765625,-7.625,2.125,-2.6875,35.05078125
811,0.982666015625,0.0595703125,-0.1943359375,-7.25,2.1875,-4.4375,35.05078125
813,0.982666015625,0.0595703125,-0.1943359375,-7.25,2.1875,-4.4375,35.05078125
815,0.972900390625,0.0693359375,-0.201904296875,-7.1875,2.625,-5.625,35.05078125
817,0.972900390625,0.0693359375,-0.201904296875,-7.1875,2.625,-5.625,35.05078125
819,0.95751953125,0.077392578125,-0.205322265625,-7.0625,2.8125,-6.875,35.05078125
821,0.95751953125,0.077392578125,-0.205322265625,-7.0625,2.8125,-6.875,35.05078125
823,0.95751953125,0.077392578125,-0.205322265625,-7.25,2.5625,-7.875,35.05078125
825,0.945556640625,0.07568359375,-0.20556640625,-7.25,2.5625,-7.875,35.05078125
827,0.945556640625,0.07568359375,-0.20556640625,-7.6875,2.125,-8.8125,35.05078125
829,0.943359375,0.075439453125,-0.19189453125,-7.6875,2.125,-8.8125,35.05078125
831,0.943359375,0.075439453125,-0.19189453125,-7.6875,2.125,-8.8125,35.05078125
833,0.943359375,0.091796875,-0.181396484375,-8.875,1.375,-9.0,35.0703125
835,0.943359375,0.091796875,-0.181396484375,-8.875,1.375,-9.0,35.0703125
837,0.93994140625,0.1142578125,-0.18798828125,-10.0,0.75,-8.5625,35.0703125
839,0.93994140625,0.1142578125,-0.18798828125,-10.0,0.75,-8.5625,35.0703125
841,0.92724609375,0.130126953125,-0.202880859375,-10.625,0.0625,-7.8125,35.0703125
843,0.92724609375,0.130126953125,-0.202880859375,-10.625,0.0625,-7.8125,35.0703125
844,0.92724609375,0.130126953125,-0.202880859375,-10.625,0.0625,-7.8125,35.0703125
846,0.908935546875,0.1376953125,-0.215576171875,-10.8125,-0.375,-7.125,35.0703125
849,0.908935546875,0.1376953125,-0.215576171875,-10.8125,-0.375,-7.125,35.0703125
851,0.89501953125,0.1328125,-0.220703125,-10.8125,-0.6875,-6.625,35.0703125
853,0.89501953125,0.1328125,-0.220703125,-10.8125,-0.6875,-6.625,35.0703125
855,0.889404296875,0.1240234375,-0.22509765625,-10.9375,-0.875,-6.1875,35.0703125
857,0.889404296875,0.1240234375,-0.22509765625,-10.9375,-0.875,-6.1875,35.0703125
859,0.888427734375,0.1181640625,-0.228515625,-11.6875,-0.5,-5.625,35.0703125
861,0.888427734375,0.1181640625,-0.228515625,-11.6875,-0.5,-5.625,35.0703125
863,0.8818359375,0.1181640625,-0.230224609375,-12.5625,0.5,-5.3125,35.0703125
865,0.8818359375,0.1181640625,-0.230224609375,-12.5625,0.5,-5.3125,35.0703125
867,0.8193359375,0.125,-0.220703125,-12.75,1.6875,-5.625,35.0703125
869,0.8740234375,0.125,-0.220703125,-12.75,1.6875,-5.625,35.0703125
871,0.8740234375,0.125,-0.220703125,-12.75,1.6875,-5.625,35.0703125
873,0.8759765625,0.130615234375,-0.2041015625,-11.6875,2.0625,-7.125,35.0703125
875,0.8759765625,0.130615234375,-0.2041015625,-11.6875,2.0625,-7.125,35.0703125
877,0.884521484375,0.133056640625,-0.193603515625,-9.75,1.375,-9.5,35.0703125
879,0.884521484375,0.133056640625,-0.193603515625,-9.75,1.375,-9.5,35.0703125
881,0.888916015625,0.12890625,-0.189697265625,-7.625,0.375,-12.375,35.0703125
883,0.888916015625,0.12890625,-0.189697265625,-7.625,0.375,-12.375,35.0703125
885,0.880615234375,0.1201171875,-0.196533203125,-6.4375,-0.4375,-15.125,35.0703125
887,0.880615234375,0.1201171875,-0.196533203125,-6.4375,-0.4375,-15.125,35.0703125
889,0.880615234375,0.1201171875,-0.196533203125,-6.4375,-0.4375,-15.125,35.0703125
891,0.86181640625,0.10888671875,-0.198486328125,-6.5625,-0.375,-16.875,35.0703125
892,0.86181640625,0.10888671875,-0.198486328125,-6.5625,-0.375,-16.875,35.0703125
894,0.84619140625,0.103271484375,-0.180419921875,-7.625,0.9375,-17.5625,35.0703125
897,0.84619140625,0.103271484375,-0.180419921875,-7.625,0.9375,-17.5625,35.0703125
899,0.849609375,0.107177734375,-0.168212890625,-8.4375,2.4375,-18.0,35.0703125
901,0.849609375,0.107177734375,-0.168212890625,-8.4375,2.4375,-18.0,35.0703125
903,0.859375,0.12841796875,-0.172607421875,-8.9375,3.625,-18.8125,35.0703125
904,0.859375,0.12841796875,-0.172607421875,-8.9375,3.625,-18.8125,35.0703125
906,0.859375,0.12841796875,-0.172607421875,-8.9375,3.625,-18.8125,35.0703125
908,0.85546875,0.155029296875,-0.1806640625,-8.9375,4.625,-20.0,35.0703125
910,0.85546875,0.155029296875,-0.1806640625,-8.9375,4.625,-20.0,35.0703125
912,0.846923828125,0.17236328125,-0.173583984375,-7.9375,5.4375,-21.0625,35.0703125
914,0.846923828125,0.17236328125,-0.173583984375,-7.9375,5.4375,-21.0625,35.0703125
916,0.8515625,0.183837890625,-0.15380859375,-6.4375,5.75,-21.625,35.0703125
918,0.8515625,0.183837890625,-0.15380859375,-6.4375,5.75,-21.625,35.0703125
920,0.8515625,0.20361328125,-0.146728515625,-5.1875,5.625,-21.8125,35.0703125
922,0.86279296875,0.20361328125,-0.146728515625,-5.1875,5.625,-21.8125,35.0703125
924,0.86279296875,0.20361328125,-0.146728515625,-5.1875,5.625,-21.8125,35.0703125
926,0.863037109375,0.22802734375,-0.1533203125,-4.625,5.3125,-21.0625,35.0703125
928,0.863037109375,0.22802734375,-0.1533203125,-4.625,5.3125,-21.0625,35.0703125
930,0.839111328125,0.2490234375,-0.17431640625,-4.4375,5.25,-19.6875,35.0703125
932,0.839111328125,0.2490234375,-0.17431640625,-4.4375,5.25,-19.6875,35.0703125
934,0.776611328125,0.26220703125,-0.202880859375,-4.5625,5.8125,-16.75,35.0703125
935,0.798583984375,0.26220703125,-0.202880859375,-4.5625,5.8125,-16.75,35.0703125
937,0.798583984375,0.26220703125,-0.202880859375,-4.5625,5.8125,-16.75,35.0703125
939,0.762939453125,0.2646484375,-0.21923828125,-5.5625,7.5,-11.875,35.0703125
942,0.762939453125,0.2646484375,-0.21923828125,-5.5625,7.5,-11.875,35.0703125
944,0.7470703125,0.25341796875,-0.22216796875,-7.1875,10.375,-6.3125,35.0703125
946,0.7470703125,0.25341796875,-0.22216796875,-7.1875,10.375,-6.3125,35.0703125
947,0.748046875,0.23291015625,-0.219970703125,-8.9375,14.375,-0.125,35.0703125
949,0.748046875,0.23291015625,-0.219970703125,-8.9375,14.375,-0.125,35.0703125
951,0.742431640625,0.21435546875,-0.21484375,-10.625,18.4375,5.4375,35.0703125
953,0.742431640625,0.21435546875,-0.21484375,-10.625,18.4375,5.4375,35.0703125
955,0.742431640625,0.21435546875,-0.21484375,-10.625,18.4375,5.4375,35.0703125
957,0.717041015625,0.1953125,-0.205078125,-12.5625,21.5,10.75,35.0703125
959,0.717041015625,0.1953125,-0.205078125,-12.5625,21.5,10.75,35.0703125
961,0.68603515625,0.177490234375,-0.212646484375,-14.9375,23.375,15.375,35.0703125
963,0.68603515625,0.177490234375,-0.212646484375,-14.9375,23.375,15.375,35.0703125
965,0.675048828125,0.1416015625,-0.22265625,-18.3125,25.875,18.5,35.0703125
967,0.675048828125,0.1416015625,-0.22265625,-18.3125,25.875,18.5,35.0703125
969,0.6953125,0.08984375,-0.20458984375,-21.5625,29.5625,19.0,35.0703125
971,0.6953125,0.08984375,-0.20458984375,-21.5625,29.5625,19.0,35.0703125
973,0.6953125,0.08984375,-0.20458984375,-21.5625,29.5625,19.0,35.0703125
975,0.739990234375,0.049560546875,-0.17236328125,-23.125,33.375,15.5,35.046875
977,0.739990234375,0.049560546875,-0.17236328125,-23.125,33.375,15.5,35.046875
979,0.7978515625,0.039794921875,-0.139404296875,-22.125,36.375,7.6875,35.046875
980,0.7978515625,0.039794921875,-0.139404296875,-22.125,36.375,7.6875,35.046875
982,0.84130859375,0.060791015625,-0.111083984375,-18.0,38.0625,-4.75,35.046875
984,0.84130859375,0.060791015625,-0.111083984375,-18.0,38.0625,-4.75,35.046875
986,0.84130859375,0.060791015625,-0.111083984375,-18.0,38.0625,-4.75,35.046875
989,0.877197265625,0.07861328125,-0.09228515625,-11.75,38.8125,-18.375,35.046875
991,0.877197265625,0.07861328125,-0.09228515625,-11.75,38.8125,-18.375,35.046875
992,0.93603515625,0.076904296875,-0.072509765625,-5.125,38.75,-31.0,35.046875
994,0.93603515625,0.076904296875,-0.072509765625,-5.125,38.75,-31.0,35.046875
996,1.013916015625,0.066162109375,-0.051025390625,-0.375,38.375,-41.0625,35.046875
998,1.013916015625,0.066162109375,-0.051025390625,-0.375,38.375,-41.0625,35.046875
1000,1.07275390625,0.065185546875,-0.037353515625,0.625,38.25,-47.4375,35.046875
1002,1.07275390625,0.065185546875,-0.037353515625,0.625,38.25,-47.4375,35.046875
1004,1.07275390625,0.065185546875,-0.037353515625,0.625,38.25,-47.4375,35.046875
1006,1.10986328125,0.083984375,-0.020751953125,-1.1875,38.875,-49.5,35.046875
1008,1.10986328125,0.083984375,-0.020751953125,-1.1875,38.875,-49.5,35.046875
1010,1.136474609375,0.112060546875,-0.015625,-2.875,40.5,-47.375,35.046875
1012,1.136474609375,0.112060546875,-0.015625,-2.875,40.5,-47.375,35.046875
1014,1.1640625,0.1298828125,-0.02734375,-4.5,41.6875,-42.5,35.046875
1016,1.1640625,0.1298828125,-0.02734375,-4.5,41.6875,-42.5,35.046875
1017,1.1640625,0.1298828125,-0.02734375,-4.5,41.6875,-35.5625,35.046875
1019,1.204833984375,0.133544921875,-0.03271484375,-7.0,41.8125,-35.5625,35.046875
1021,1.204833984375,0.133544921875,-0.03271484375,-7.0,41.8125,-35.5625,35.046875
1023,1.251708984375,0.137451171875,-0.020263671875,-10.875,41.4375,-27.625,35.046875
1025,1.251708984375,0.137451171875,-0.020263671875,-10.875,41.4375,-27.625,35.046875
1027,1.284912109375,0.150634765625,-0.001220703125,-14.5,40.8125,-20.0625,35.046875
1029,1.284912109375,0.150634765625,-0.001220703125,-14.5,40.8125,-20.0625,35.046875
1031,1.284912109375,0.150634765625,0.061279296875,-15.4375,40.9375,-13.5,35.046875
1033,1.302001953125,0.18212890625,0.01123046875,-15.4375,40.9375,-13.5,35.046875
1035,1.302001953125,0.18212890625,0.01123046875,-15.4375,40.9375,-7.75,35.046875
1037,1.30322265625,0.222900390625,0.05419921875,-15.3125,38.3125,-7.75,35.046875
1039,1.30322265625,0.222900390625,0.05419921875,-15.3125,38.3125,-7.75,35.046875
1041,1.276123046875,0.23486328125,0.05029296875,-13.25,32.8125,-3.5625,35.046875
1043,1.276123046875,0.23486328125,0.05029296875,-13.25,32.8125,-3.5625,35.046875
1045,1.281005859375,0.215087890625,0.0283203125,-10.0,28.125,-0.125,35.046875
1047,1.281005859375,0.215087890625,0.0283203125,-10.0,28.125,-0.125,35.046875
1049,1.281005859375,0.215087890625,0.0283203125,-8.1875,24.25,3.1875,35.046875
1051,1.2958984375,0.18701171875,0.017333984375,-8.1875,24.25,3.1875,35.046875
1053,1.2958984375,0.18701171875,0.0322265625,-8.625,21.625,6.1875,35.046875
1056,1.2919921875,0.17333984375,0.0322265625,-8.625,21.625,6.1875,35.046875
1058,1.2919921875,0.17333984375,0.04833984375,-9.375,19.0,9.0625,35.046875
1059,1.265380859375,0.172607421875,0.04833984375,-9.375,19.0,9.0625,35.046875
1061,1.265380859375,0.172607421875,0.04833984375,-9.375,19.0,9.0625,35.046875
1063,1.220703125,0.16455078125,0.039306640625,-8.125,15.125,10.875,35.046875
1065,1.220703125,0.16455078125,0.039306640625,-8.125,15.125,10.875,35.046875
1067,1.170166015625,0.136962890625,0.008056640625,-5.75,10.5625,10.625,35.046875
1069,1.170166015625,0.136962890625,0.008056640625,-5.75,10.5625,10.625,35.046875
1071,1.12451171875,0.09326171875,-0.02294921875,-4.1875,6.375,8.875,35.046875
1073,1.12451171875,0.09326171875,-0.02294921875,-4.1875,6.375,8.875,35.046875
1075,1.12451171875,0.09326171875,-0.02294921875,-4.1875,6.375,8.875,35.046875
1077,1.0947265625,0.044921875,-0.044921875,-4.75,3.5625,6.875,35.046875
1079,1.0947265625,0.044921875,-0.044921875,-4.75,3.5625,6.875,35.046875
1081,1.076416015625,0.010009765625,-0.0615234375,-6.5,2.8125,5.25,35.046875
1083,1.076416015625,0.010009765625,-0.0615234375,-6.5,2.8125,5.25,35.046875
1085,1.059814453125,0.005859375,-0.07177734375,-7.625,3.5625,3.1875,35.046875
1087,1.059814453125,0.005859375,-0.07177734375,-7.625,3.5625,3.1875,35.046875
1089,1.04248046875,0.01708984375,-0.077880859375,-7.0,5.0625,-0.25,35.046875
1091,1.04248046875,0.01708984375,-0.077880859375,-7.0,5.0625,-0.25,35.046875
1092,1.04248046875,0.01708984375,-0.077880859375,-7.0,5.0625,-0.25,35.046875
1094,1.029541015625,0.02587890625,-0.072265625,-4.6875,5.9375,-5.3125,35.046875
1096,1.029541015625,0.02587890625,-0.072265625,-4.6875,5.9375,-5.3125,35.046875
1098,1.025146484375,0.023193359375,-0.0546875,-1.9375,6.125,-11.875,35.046875
1100,1.025146484375,0.023193359375,-0.0546875,-1.9375,6.125,-11.875,35.046875
1102,1.02978515625,0.0166015625,-0.032470703125,0.1875,5.625,-18.375,35.046875
1104,1.02978515625,0.0166015625,-0.032470703125,0.1875,5.625,-18.375,35.046875
1106,1.02978515625,0.0166015625,-0.032470703125,1.125,4.8125,-23.75,35.046875
1108,1.031005859375,0.02099609375,-0.007080078125,1.125,4.8125,-23.75,35.046875
1110,1.031005859375,0.02099609375,-0.007080078125,1.125,4.8125,-23.75,35.046875
1112,1.018798828125,0.046630859375,0.008056640625,0.9375,3.875,-27.4375,35.046875
1114,1.018798828125,0.046630859375,0.008056640625,0.9375,3.875,-27.4375,35.046875
1116,1.0009765625,0.08935546875,0.0078125,0.75,2.4375,-30.1875,35.04296875
1117,1.0009765625,0.08935546875,0.0078125,0.75,2.4375,-30.1875,35.04296875
1119,1.0009765625,0.08935546875,0.0078125,0.75,2.4375,-30.1875,35.04296875
1121,0.982421875,0.133544921875,0.000732421875,1.1875,0.5625,-31.5625,35.04296875
1123,0.982421875,0.133544921875,0.000732421875,1.1875,0.5625,-31.5625,35.04296875
1126,0.968994140625,0.160400390625,-0.001708984375,1.875,-1.5,-31.5,35.04296875
1128,0.968994140625,0.160400390625,-0.001708984375,1.875,-1.5,-31.5,35.04296875
1129,0.961181640625,0.167724609375,-0.00244140625,2.1875,-3.9375,-30.0625,35.04296875
1131,0.961181640625,0.167724609375,-0.00244140625,2.1875,-3.9375,-30.0625,35.04296875
1133,0.961181640625,0.166015625,-0.005126953125,1.3125,-6.4375,-27.4375,35.04296875
1135,0.961181640625,0.166015625,-0.005126953125,1.3125,-6.4375,-27.4375,35.04296875
1137,0.961181640625,0.166015625,-0.005126953125,1.3125,-6.4375,-27.4375,35.04296875
1139,0.965576171875,0.171875,-0.0029296875,-0.8125,-8.375,-24.3125,35.04296875
1141,0.965576171875,0.171875,-0.0029296875,-0.8125,-8.375,-24.3125,35.04296875
1143,0.967529296875,0.196044921875,0.00146484375,-3.3125,-10.4375,-20.9375,35.04296875
1145,0.967529296875,0.196044921875,0.00146484375,-3.3125,-10.4375,-20.9375,35.04296875
1147,0.96484375,0.2275390625,0.000732421875,-4.5625,-12.75,-17.9375,35.04296875
1149,0.96484375,0.2275390625,0.000732421875,-4.5625,-12.75,-17.9375,35.04296875
1151,0.96630859375,0.244140625,-0.00244140625,-3.75,-15.625,-15.9375,35.04296875
1153,0.96630859375,0.244140625,-0.00244140625,-3.75,-15.625,-15.9375,35.04296875
1155,0.972900390625,0.2421875,-0.005126953125,-1.8125,-18.5,-15.375,35.04296875
1157,0.972900390625,0.2421875,-0.005126953125,-1.8125,-18.5,-15.375,35.04296875
1159,0.972900390625,0.2421875,-0.005126953125,-1.8125,-18.5,-15.375,35.04296875
1161,0.980712890625,0.236572265625,-0.00439453125,-0.0625,-21.0,-14.6875,35.04296875
1163,0.980712890625,0.236572265625,-0.00439453125,-0.0625,-21.0,-14.6875,35.04296875
1165,0.98876953125,0.23779296875,-0.000732421875,1.0,-22.875,-13.25,35.04296875
1167,0.98876953125,0.23779296875,-0.000732421875,1.0,-22.875,-13.25,35.04296875
1169,0.994873046875,0.242919921875,0.003662109375,1.625,-24.5625,-11.375,35.04296875
1171,0.994873046875,0.242919921875,0.003662109375,1.625,-24.5625,-11.375,35.04296875
1173,0.997802734375,0.24755859375,0.003662109375,2.5625,-26.25,-9.5,35.04296875
1175,0.997802734375,0.24755859375,0.003662109375,2.5625,-26.25,-9.5,35.04296875
1177,0.997802734375,0.24755859375,0.003662109375,2.5625,-26.25,-9.5,35.04296875
1178,0.998046875,0.24560546875,0.0029296875,4.1875,-27.875,-7.8125,35.04296875
1180,0.998046875,0.24560546875,0.0029296875,4.1875,-27.875,-7.8125,35.04296875
1182,0.998291015625,0.236083984375,0.0048828125,5.8125,-30.0,-5.9375,35.04296875
1184,0.998291015625,0.236083984375,0.0048828125,5.8125,-30.0,-5.9375,35.04296875
1186,0.99609375,0.224609375,0.010009765625,7.0625,-31.9375,-4.3125,35.04296875
1188,0.99609375,0.224609375,0.010009765625,7.0625,-31.9375,-4.3125,35.04296875
1191,0.98876953125,0.21435546875,0.016357421875,7.875,-33.875,-2.625,35.04296875
1192,0.98876953125,0.21435546875,0.016357421875,7.875,-33.875,-2.625,35.04296875
1194,0.98876953125,0.21435546875,0.016357421875,7.875,-33.875,-2.625,35.04296875
1196,0.969482421875,0.204833984375,0.016845703125,8.5,-36.25,-0.625,35.04296875
1198,0.969482421875,0.204833984375,0.016845703125,8.5,-36.25,-0.625,35.04296875
1200,0.94091796875,0.190185546875,0.00537109375,8.5,-39.0625,1.625,35.04296875
1202,0.94091796875,0.190185546875,0.00537109375,8.5,-39.0625,1.625,35.04296875
1204,0.903564453125,0.17333984375,-0.0185546875,7.25,-41.8125,3.6875,35.04296875
1206,0.903564453125,0.17333984375,-0.0185546875,7.25,-41.8125,3.6875,35.04296875
1208,0.903564453125,0.17333984375,-0.0185546875,7.25,-41.8125,3.6875,35.04296875
1210,0.8642578125,0.16162109375,-0.0380859375,5.8125,-43.25,5.8125,35.04296875
1211,0.8642578125,0.16162109375,-0.0380859375,5.8125,-43.25,5.8125,35.04296875
1214,0.8330078125,0.15771484375,-0.0478515625,4.875,-42.875,7.5625,35.04296875
1216,0.8330078125,0.15771484375,-0.0478515625,4.875,-42.875,7.5625,35.04296875
1218,0.8173828125,0.16357421875,-0.053955078125,4.9375,-41.875,8.1875,35.04296875
1220,0.8173828125,0.16357421875,-0.053955078125,4.9375,-41.875,8.1875,35.04296875
1221,0.8173828125,0.171142578125,-0.06396484375,6.125,-41.1875,7.875,35.04296875
1223,0.8046875,0.171142578125,-0.06396484375,6.125,-41.1875,7.875,35.04296875
1225,0.8046875,0.171142578125,-0.06396484375,6.125,-41.1875,7.875,35.04296875
1227,0.794677734375,0.169921875,-0.067626953125,7.625,-41.25,6.8125,35.04296875
1229,0.794677734375,0.169921875,-0.067626953125,7.625,-41.25,6.8125,35.04296875
1231,0.79833984375,0.15185546875,-0.069580078125,9.0,-40.9375,5.0,35.04296875
1233,0.79833984375,0.15185546875,-0.069580078125,9.0,-40.9375,5.0,35.04296875
1235,0.814697265625,0.13916015625,-0.0546875,10.875,-39.25,3.125,35.04296875
1237,0.814697265625,0.13916015625,-0.0546875,10.875,-39.25,3.125,35.04296875
1239,0.831298828125,0.13525390625,-0.026123046875,12.5625,-37.3125,1.5,35.04296875
1241,0.831298828125,0.13525390625,-0.026123046875,12.5625,-37.3125,1.5,35.04296875
1243,0.831298828125,0.13525390625,-0.026123046875,12.5625,-37.3125,1.5,35.04296875
1245,0.848876953125,0.1357421875,0.001220703125,13.9375,-36.1875,-0.1875,35.04296875
1247,0.848876953125,0.1357421875,0.001220703125,13.9375,-36.1875,-0.1875,35.04296875
1249,0.864990234375,0.1328125,0.024658203125,15.6875,-36.625,-2.3125,35.04296875
1251,0.864990234375,0.1328125,0.024658203125,15.6875,-36.625,-2.3125,35.04296875
1253,0.883056640625,0.120361328125,0.0341796875,17.0,-38.0625,-4.5,35.04296875
1255,0.883056640625,0.120361328125,0.0341796875,17.0,-38.0625,-4.5,35.04296875
1258,0.90234375,0.112548828125,0.030029296875,18.3125,-39.5625,-5.875,35.05078125
1259,0.90234375,0.112548828125,0.030029296875,18.3125,-39.5625,-5.875,35.05078125
1262,0.919921875,0.11572265625,0.029052734375,19.375,-40.375,-6.375,35.05078125
1264,0.919921875,0.11572265625,0.029052734375,19.375,-40.375,-6.375,35.05078125
1265,0.919921875,0.11572265625,0.029052734375,19.375,-40.375,-6.375,35.05078125
1267,0.944580078125,0.12548828125,0.0341796875,20.25,-40.25,-5.8125,35.05078125
1269,0.944580078125,0.12548828125,0.0341796875,20.25,-40.25,-5.8125,35.05078125
1271,0.977294921875,0.13232421875,0.035888671875,21.5625,-40.875,-4.6875,35.05078125
1273,0.977294921875,0.13232421875,0.035888671875,21.5625,-40.875,-4.6875,35.05078125
1275,1.009033203125,0.135009765625,0.02685546875,22.875,-43.125,-3.1875,35.05078125
1277,1.009033203125,0.135009765625,0.02685546875,22.875,-43.125,-3.1875,35.05078125
1279,1.026123046875,0.1337890625,0.011962890625,23.25,-46.625,-1.25,35.05078125
1281,1.026123046875,0.1337890625,0.011962890625,23.25,-46.625,-1.25,35.05078125
1283,1.026123046875,0.1337890625,0.011962890625,23.25,-46.625,-1.25,35.05078125
1285,1.02490234375,0.129150390625,-0.0048828125,22.5,-50.1875,0.5625,35.05078125
1287,1.02490234375,0.129150390625,-0.0048828125,22.5,-50.1875,0.5625,35.05078125
1289,1.017578125,0.11962890625,-0.015869140625,21.25,-53.0,2.5,35.05078125
1291,1.017578125,0.11962890625,-0.015869140625,21.25,-53.0,2.5,35.05078125
1293,1.01318359375,0.11181640625,-0.0224609375,19.8125,-55.0625,4.0625,35.05078125
1295,1.01318359375,0.11181640625,-0.0224609375,19.8125,-55.0625,4.0625,35.05078125
1297,1.01318359375,0.11181640625,-0.0224609375,19.8125,-56.5625,5.25,35.05078125
1298,1.004150390625,0.120849609375,-0.020263671875,19.0,-56.5625,5.25,35.05078125
1300,1.004150390625,0.120849609375,-0.020263671875,19.0,-56.5625,5.25,35.05078125
1303,0.99365234375,0.143310546875,-0.021484375,19.25,-58.0625,5.625,35.05078125
1305,0.99365234375,0.143310546875,-0.021484375,19.25,-58.0625,5.625,35.05078125
1307,0.976318359375,0.16943359375,-0.040283203125,20.0,-60.1875,5.1875,35.05078125
1309,0.976318359375,0.16943359375,-0.040283203125,20.0,-60.1875,5.1875,35.05078125
1311,0.947265625,0.1962890625,-0.072021484375,20.4375,-63.1875,4.6875,35.05078125
1312,0.947265625,0.1962890625,-0.072021484375,20.4375,-63.1875,4.6875,35.05078125
1314,0.947265625,0.1962890625,-0.072021484375,20.4375,-66.1875,4.125,35.05078125
1316,0.9169921875,0.21142578125,-0.10498046875,20.0,-66.1875,4.125,35.05078125
1318,0.9169921875,0.21142578125,-0.10498046875,20.0,-66.1875,4.125,35.05078125
1320,0.885498046875,0.217041015625,-0.130859375,18.6875,-67.875,4.5,35.05078125
1322,0.885498046875,0.217041015625,-0.130859375,18.6875,-67.875,4.5,35.05078125
1324,0.84912109375,0.2294921875,-0.15087890625,17.4375,-67.3125,5.6875,35.05078125
1326,0.84912109375,0.2294921875,-0.15087890625,17.4375,-67.3125,5.6875,35.05078125
1328,0.81494140625,0.243408203125,-0.183349609375,16.8125,-64.75,8.0,35.05078125
1330,0.81494140625,0.243408203125,-0.183349609375,16.8125,-64.75,8.0,35.05078125
1332,0.81494140625,0.243408203125,-0.245849609375,17.5625,-61.0,11.75,35.05078125
1334,0.798583984375,0.247314453125,-0.2314453125,17.5625,-61.0,11.75,35.05078125
1336,0.798583984375,0.247314453125,-0.2314453125,17.5625,-61.0,11.75,35.05078125
1338,0.79443359375,0.25048828125,-0.274658203125,17.6875,-56.25,16.625,35.05078125
1340,0.79443359375,0.25048828125,-0.274658203125,17.6875,-56.25,16.625,35.05078125
1342,0.79052734375,0.243896484375,-0.299560546875,16.875,-50.5,21.25,35.05078125
1344,0.79052734375,0.243896484375,-0.299560546875,16.875,-50.5,21.25,35.05078125
1346,0.796142578125,0.2216796875,-0.304443359375,15.9375,-44.75,25.5625,35.05078125
1348,0.796142578125,0.2216796875,-0.304443359375,15.9375,-44.75,25.5625,35.05078125
1350,0.796142578125,0.2216796875,-0.30126953125,15.0625,-40.0625,29.875,35.05078125
1352,0.82470703125,0.189453125,-0.30126953125,15.0625,-40.0625,29.875,35.05078125
1354,0.82470703125,0.189453125,-0.30126953125,15.0625,-40.0625,29.875,35.05078125
1356,0.860107421875,0.1611328125,-0.28369140625,14.0,-36.125,33.125,35.05078125
1357,0.860107421875,0.1611328125,-0.28369140625,14.0,-36.125,33.125,35.05078125
1359,0.88330078125,0.1416015625,-0.254150390625,12.8125,-33.0625,34.8125,35.05078125
1361,0.88330078125,0.1416015625,-0.254150390625,12.8125,-33.0625,34.8125,35.05078125
1363,0.88330078125,0.12646484375,-0.2255859375,11.5625,-30.875,35.0625,35.05078125
1365,0.896728515625,0.12646484375,-0.2255859375,11.5625,-30.875,35.0625,35.05078125
1368,0.896728515625,0.06396484375,-0.199462890625,10.5,-29.8125,33.8125,35.05078125
1370,0.905029296875,0.10498046875,-0.199462890625,10.5,-29.8125,33.8125,35.05078125
1371,0.905029296875,0.10498046875,-0.199462890625,10.5,-29.8125,33.8125,35.05078125
1373,0.913818359375,0.078369140625,-0.18798828125,10.3125,-30.0625,31.625,35.05078125
1375,0.913818359375,0.078369140625,-0.18798828125,10.3125,-30.0625,31.625,35.05078125
1377,0.92724609375,0.06005859375,-0.190673828125,9.875,-31.125,29.0625,35.05078125
1379,0.92724609375,0.06005859375,-0.190673828125,9.875,-31.125,29.0625,35.05078125
1381,0.935791015625,0.053955078125,-0.198974609375,8.625,-31.75,26.3125,35.05078125
1383,0.935791015625,0.053955078125,-0.198974609375,8.625,-31.75,26.3125,35.05078125
1385,0.935791015625,0.053955078125,-0.198974609375,8.625,-31.75,26.3125,35.05078125
1387,0.9326171875,0.058349609375,-0.206298828125,6.9375,-31.375,23.6875,35.05078125
1389,0.9326171875,0.058349609375,-0.206298828125,6.9375,-31.375,23.6875,35.05078125
1391,0.924560546875,0.068359375,-0.20947265625,4.9375,-30.4375,21.125,35.05078125
1393,0.924560546875,0.068359375,-0.20947265625,4.9375,-30.4375,21.125,35.05078125
1395,0.920166015625,0.07958984375,-0.2109375,3.375,-29.3125,18.75,35.05078125
1397,0.920166015625,0.07958984375,-0.2109375,3.375,-29.3125,18.75,35.05078125
1399,0.92822265625,0.093017578125,-0.215087890625,3.125,-28.5,16.5625,35.08984375
1401,0.92822265625,0.093017578125,-0.215087890625,3.125,-28.5,16.5625,35.08984375
1403,0.92822265625,0.093017578125,-0.215087890625,3.125,-28.5,16.5625,35.08984375
1405,0.944580078125,0.10205078125,-0.219970703125,4.0625,-28.5,13.9375,35.08984375
1406,0.944580078125,0.10205078125,-0.219970703125,4.0625,-28.5,13.9375,35.08984375
1408,0.957763671875,0.110107421875,-0.219482421875,4.625,-29.3125,11.3125,35.08984375
1411,0.957763671875,0.110107421875,-0.219482421875,4.625,-29.3125,11.3125,35.08984375
1413,0.9599609375,0.115966796875,-0.220947265625,4.25,-30.125,9.875,35.08984375
1415,0.9599609375,0.115966796875,-0.220947265625,4.25,-30.125,9.875,35.08984375
1417,0.953369140625,0.122802734375,-0.228271484375,2.875,-30.4375,9.5625,35.08984375
1418,0.953369140625,0.122802734375,-0.228271484375,2.875,-30.4375,9.5625,35.08984375
1420,0.953369140625,0.122802734375,-0.228271484375,2.875,-30.4375,9.5625,35.08984375
1422,0.9501953125,0.12744140625,-0.248046875,1.75,-31.3125,10.0,35.08984375
1424,0.9501953125,0.12744140625,-0.248046875,1.75,-31.3125,10.0,35.08984375
1426,0.955810546875,0.129150390625,-0.27587890625,1.4375,-32.3125,10.125,35.08984375
1428,0.955810546875,0.129150390625,-0.27587890625,1.4375,-32.3125,10.125,35.08984375
1430,0.9560546875,0.123779296875,-0.301513671875,1.5,-33.1875,9.1875,35.08984375
1432,0.9560546875,0.123779296875,-0.301513671875,1.5,-33.1875,9.1875,35.08984375
1434,0.94140625,0.114501953125,-0.3291015625,1.6875,-33.4375,7.5,35.08984375
1436,0.94140625,0.114501953125,-0.3291015625,1.6875,-33.4375,7.5,35.08984375
1438,0.94140625,0.114501953125,-0.3291015625,1.6875,-33.4375,7.5,35.08984375
1440,0.917724609375,0.10302734375,-0.343017578125,1.6875,-32.375,5.25,35.08984375
1442,0.917724609375,0.10302734375,-0.343017578125,1.6875,-32.375,5.25,35.08984375
1444,0.89892578125,0.097900390625,-0.335693359375,2.125,-29.8125,3.25,35.08984375
1446,0.89892578125,0.097900390625,-0.335693359375,2.125,-29.8125,3.25,35.08984375
1448,0.897216796875,0.10009765625,-0.31787109375,3.3125,-26.25,1.625,35.08984375
1450,0.897216796875,0.10009765625,-0.31787109375,3.3125,-26.25,1.625,35.08984375
1452,0.909423828125,0.10595703125,-0.299560546875,4.6875,-23.25,0.375,35.08984375
1455,0.909423828125,0.10595703125,-0.299560546875,4.6875,-23.25,0.375,35.08984375
1457,0.914306640625,0.108154296875,-0.281982421875,6.0625,-20.8125,-0.375,35.08984375
1458,0.914306640625,0.108154296875,-0.281982421875,6.0625,-20.8125,-0.375,35.08984375
1460,0.914306640625,0.108154296875,-0.281982421875,6.0625,-20.8125,-0.375,35.08984375
1462,0.9072265625,0.103515625,-0.25927734375,6.75,-18.5,-0.625,35.08984375
1464,0.9072265625,0.103515625,-0.25927734375,6.75,-18.5,-0.625,35.08984375
1466,0.900390625,0.09619140625,-0.2265625,6.3125,-16.25,-0.625,35.08984375
1468,0.900390625,0.09619140625,-0.2265625,6.3125,-16.25,-0.625,35.08984375
1470,0.916259765625,0.094970703125,-0.199462890625,5.5,-14.75,-0.125,35.08984375
1472,0.916259765625,0.094970703125,-0.199462890625,5.5,-14.75,-0.125,35.08984375
1474,0.916259765625,0.094970703125,-0.199462890625,5.5,-14.75,-0.125,35.08984375
1475,0.9443359375,0.111083984375,-0.196044921875,4.75,-15.0,0.6875,35.08984375
1478,0.9443359375,0.111083984375,-0.196044921875,4.75,-15.0,0.6875,35.08984375
1480,0.958740234375,0.13037109375,-0.208740234375,3.9375,-16.875,1.625,35.08984375
1482,0.958740234375,0.13037109375,-0.208740234375,3.9375,-16.875,1.625,35.08984375
1484,0.94677734375,0.136474609375,-0.2236328125,3.5,-19.1875,2.3125,35.08984375
1486,0.94677734375,0.136474609375,-0.2236328125,3.5,-19.1875,2.3125,35.08984375
1488,0.918701171875,0.130859375,-0.241943359375,2.9375,-20.9375,2.9375,35.08984375
1490,0.918701171875,0.130859375,-0.241943359375,2.9375,-20.9375,2.9375,35.08984375
1491,0.918701171875,0.130859375,-0.241943359375,2.9375,-20.9375,2.9375,35.08984375
1493,0.897705078125,0.119140625,-0.2666015625,2.5625,-21.5625,3.625,35.08984375
1495,0.897705078125,0.119140625,-0.2666015625,2.5625,-21.5625,3.625,35.08984375
1497,0.894287109375,0.103515625,-0.287353515625,2.8125,-21.8125,4.9375,35.08984375
1500,0.894287109375,0.103515625,-0.287353515625,2.8125,-21.8125,4.9375,35.08984375
1502,0.89697265625,0.0830078125,-0.306640625,2.5625,-22.3125,6.4375,35.08984375
1503,0.89697265625,0.0830078125,-0.306640625,2.5625,-22.3125,6.4375,35.08984375
1505,0.894287109375,0.062255859375,-0.330078125,0.5625,-23.0625,8.0625,35.08984375
1507,0.894287109375,0.062255859375,-0.330078125,0.5625,-23.0625,8.0625,35.08984375
1509,0.894287109375,0.062255859375,-0.330078125,0.5625,-23.0625,9.4375,35.08984375
1511,0.87939453125,0.04248046875,-0.353759765625,-2.6875,-23.3125,9.4375,35.08984375
1513,0.87939453125,0.04248046875,-0.353759765625,-2.6875,-23.3125,9.4375,35.08984375
1515,0.853759765625,0.027099609375,-0.368408203125,-5.6875,-22.625,9.9375,35.08984375
1517,0.853759765625,0.027099609375,-0.368408203125,-5.6875,-22.625,9.9375,35.08984375
1519,0.8359375,0.012939453125,-0.375,-7.0625,-21.5,9.5,35.08984375
1521,0.8359375,0.012939453125,-0.375,-7.0625,-21.5,9.5,35.08984375
1523,0.833984375,0.006103515625,-0.38427734375,-6.625,-19.8125,7.6875,35.08984375
1525,0.833984375,0.006103515625,-0.38427734375,-6.625,-19.8125,7.6875,35.08984375
1527,0.833984375,0.006103515625,-0.38427734375,-6.625,-18.1875,5.125,35.08984375
1529,0.83447265625,0.003662109375,-0.386962890625,-5.4375,-18.1875,5.125,35.08984375
1531,0.83447265625,0.003662109375,-0.386962890625,-5.4375,-18.1875,5.125,35.08984375
1533,0.827392578125,0.0087890625,-0.382080078125,-4.6875,-17.0,2.0,35.08984375
1535,0.827392578125,0.0087890625,-0.382080078125,-4.6875,-17.0,2.0,35.08984375
1537,0.814208984375,0.012451171875,-0.374267578125,-4.5625,-16.25,-1.1875,35.08984375
1538,0.814208984375,0.012451171875,-0.374267578125,-4.5625,-16.25,-1.1875,35.08984375
1540,0.814208984375,0.012451171875,-0.374267578125,-4.5625,-15.625,-3.4375,35.08984375
1543,0.798828125,0.015625,-0.362060546875,-4.75,-15.625,-3.4375,35.07421875
1545,0.798828125,0.015625,-0.362060546875,-4.75,-15.625,-5.6875,35.07421875
1547,0.78515625,0.0224609375,-0.361328125,-4.75,-15.0,-5.6875,35.07421875
1548,0.78515625,0.0224609375,-0.361328125,-4.75,-15.0,-5.6875,35.07421875
1550,0.764404296875,0.025634765625,-0.373779296875,-4.625,-14.8125,-7.1875,35.07421875
1552,0.764404296875,0.025634765625,-0.373779296875,-4.625,-14.8125,-7.1875,35.07421875
1554,0.740966796875,0.027587890625,-0.39453125,-4.25,-14.75,-7.9375,35.07421875
1556,0.740966796875,0.027587890625,-0.39453125,-4.25,-14.75,-7.9375,35.07421875
1558,0.740966796875,0.027587890625,-0.425537109375,-3.9375,-15.25,-8.0,35.07421875
1560,0.712158203125,0.04296875,-0.425537109375,-3.9375,-15.25,-8.0,35.07421875
1562,0.712158203125,0.04296875,-0.425537109375,-3.9375,-15.25,-8.0,35.07421875
1564,0.6796875,0.060546875,-0.464599609375,-4.4375,-16.0,-8.1875,35.07421875
1566,0.6796875,0.060546875,-0.464599609375,-4.4375,-16.0,-8.1875,35.07421875
1568,0.6455078125,0.06103515625,-0.503173828125,-4.625,-16.6875,-9.5,35.07421875
1570,0.6455078125,0.06103515625,-0.503173828125,-4.625,-16.6875,-9.5,35.07421875
1572,0.618896484375,0.055908203125,-0.532470703125,-4.375,-17.1875,-11.5,35.07421875
1574,0.618896484375,0.055908203125,-0.532470703125,-4.375,-17.1875,-11.5,35.07421875
1576,0.618896484375,0.055908203125,-0.532470703125,-4.375,-17.1875,-14.0625,35.07421875
1577,0.606689453125,0.056640625,-0.550048828125,-3.8125,-17.5625,-14.0625,35.07421875
1580,0.606689453125,0.056640625,-0.550048828125,-3.8125,-17.5625,-14.0625,35.07421875
1582,0.605712890625,0.078369140625,-0.570068359375,-1.75,-17.75,-17.375,35.07421875
1583,0.605712890625,0.078369140625,-0.570068359375,-1.75,-17.75,-17.375,35.07421875
1586,0.611083984375,0.106689453125,-0.593017578125,1.3125,-17.5625,-21.75,35.07421875
1588,0.611083984375,0.106689453125,-0.593017578125,1.3125,-17.5625,-21.75,35.07421875
1590,0.615234375,0.114990234375,-0.60400390625,5.125,-17.125,-27.375,35.07421875
1592,0.615234375,0.114990234375,-0.60400390625,5.125,-17.125,-27.375,35.07421875
1594,0.62060546875,0.11083984375,-0.5927734375,8.0625,-17.25,-33.8125,35.07421875
1595,0.62060546875,0.11083984375,-0.5927734375,8.0625,-17.25,-33.8125,35.07421875
1597,0.62060546875,0.11083984375,-0.5927734375,8.0625,-17.25,-33.8125,35.07421875
1599,0.65283203125,0.105224609375,-0.57763671875,9.4375,-18.4375,-39.25,35.07421875
1601,0.65283203125,0.105224609375,-0.57763671875,9.4375,-18.4375,-39.25,35.07421875
1603,0.701904296875,0.1142578125,-0.579345703125,10.0625,-19.4375,-42.625,35.07421875
1605,0.701904296875,0.1142578125,-0.579345703125,10.0625,-19.4375,-42.625,35.07421875
1608,0.733642578125,0.140869140625,-0.587158203125,10.5625,-19.3125,-44.5625,35.07421875
1610,0.733642578125,0.140869140625,-0.587158203125,10.5625,-19.3125,-44.5625,35.07421875
1612,0.7509765625,0.162353515625,-0.597900390625,11.4375,-18.5625,-46.0625,35.07421875
1613,0.7509765625,0.162353515625,-0.597900390625,11.4375,-18.5625,-46.0625,35.07421875
1615,0.7509765625,0.162353515625,-0.597900390625,11.4375,-18.5625,-46.0625,35.07421875
1617,0.767333984375,0.174560546875,-0.59912109375,12.125,-17.3125,-46.5625,35.07421875
1619,0.767333984375,0.174560546875,-0.59912109375,12.125,-17.3125,-46.5625,35.07421875
1621,0.782470703125,0.182861328125,-0.59228515625,12.0625,-15.5625,-45.4375,35.07421875
1623,0.782470703125,0.182861328125,-0.59228515625,12.0625,-15.5625,-45.4375,35.07421875
1625,0.7998046875,0.188232421875,-0.580810546875,11.0,-13.9375,-42.5,35.07421875
1627,0.7998046875,0.188232421875,-0.580810546875,11.0,-13.9375,-42.5,35.07421875
1629,0.8203125,0.19677734375,-0.56494140625,9.0625,-12.0,-37.625,35.07421875
1631,0.8203125,0.19677734375,-0.56494140625,9.0625,-12.0,-37.625,35.07421875
1633,0.8203125,0.19677734375,-0.56494140625,9.0625,-12.0,-37.625,35.07421875
1635,0.846923828125,0.20751953125,-0.54541015625,6.4375,-9.5625,-31.375,35.07421875
1637,0.846923828125,0.20751953125,-0.54541015625,6.4375,-9.5625,-31.375,35.07421875
1639,0.879638671875,0.218505859375,-0.525146484375,3.75,-6.6875,-25.125,35.07421875
1641,0.879638671875,0.218505859375,-0.525146484375,3.75,-6.6875,-25.125,35.07421875
1643,0.90234375,0.232666015625,-0.499755859375,2.3125,-3.75,-20.0625,35.07421875
1645,0.90234375,0.232666015625,-0.499755859375,2.3125,-3.75,-20.0625,35.07421875
1647,0.918212890625,0.24755859375,-0.4853515625,2.25,-1.875,-15.5625,35.07421875
1649,0.918212890625,0.24755859375,-0.4853515625,2.25,-1.875,-15.5625,35.07421875
1652,0.93115234375,0.25537109375,-0.4755859375,2.625,-0.5625,-11.4375,35.07421875
1654,0.93115234375,0.25537109375,-0.4755859375,2.625,-0.5625,-11.4375,35.07421875
1655,0.93115234375,0.25537109375,-0.4755859375,2.625,0.6875,-7.625,35.07421875
1657,0.935546875,0.254150390625,-0.46728515625,2.9375,0.6875,-7.625,35.07421875
1659,0.935546875,0.254150390625,-0.46728515625,2.9375,0.6875,-7.625,35.07421875
1661,0.941162109375,0.248291015625,-0.45654296875,3.4375,2.6875,-3.9375,35.07421875
1663,0.941162109375,0.248291015625,-0.45654296875,3.4375,2.6875,-3.9375,35.07421875
1665,0.959716796875,0.24365234375,-0.44677734375,4.3125,5.3125,-0.125,35.07421875
1667,0.959716796875,0.24365234375,-0.44677734375,4.3125,5.3125,-0.125,35.07421875
1669,0.959716796875,0.24365234375,-0.438720703125,5.8125,7.25,3.6875,35.07421875
1671,0.977783203125,0.241455078125,-0.438720703125,5.8125,7.25,3.6875,35.07421875
1673,0.977783203125,0.241455078125,-0.438720703125,6.5625,8.0625,6.75,35.07421875
1675,0.98828125,0.238037109375,-0.443115234375,6.5625,8.0625,6.75,35.07421875
1677,0.98828125,0.238037109375,-0.443115234375,6.5625,8.0625,6.75,35.07421875
1679,0.9873046875,0.219970703125,-0.452880859375,6.75,7.8125,8.5,35.07421875
1681,0.9873046875,0.219970703125,-0.452880859375,6.75,7.8125,8.5,35.07421875
1683,0.97998046875,0.193115234375,-0.450927734375,6.9375,7.875,9.125,35.08203125
1685,0.97998046875,0.193115234375,-0.450927734375,6.9375,7.875,9.125,35.08203125
1687,0.982666015625,0.166748046875,-0.437744140625,7.625,9.25,9.125,35.08203125
1689,0.982666015625,0.166748046875,-0.437744140625,7.625,9.25,9.125,35.08203125
1691,0.982666015625,0.166748046875,-0.437744140625,7.625,9.25,9.125,35.08203125
1692,0.999267578125,0.148193359375,-0.422607421875,8.75,11.125,9.5,35.08203125
1694,0.999267578125,0.148193359375,-0.422607421875,8.75,11.125,9.5,35.08203125
1697,1.013427734375,0.133056640625,-0.412841796875,9.0,11.875,10.6875,35.08203125
1699,1.013427734375,0.133056640625,-0.412841796875,9.0,11.875,10.6875,35.08203125
1701,1.012451171875,0.113037109375,-0.411865234375,7.875,10.8125,12.1875,35.08203125
1703,1.012451171875,0.113037109375,-0.411865234375,7.875,10.8125,12.1875,35.08203125
1705,0.99462890625,0.083984375,-0.420166015625,5.625,9.0625,13.25,35.08203125
1707,0.99462890625,0.083984375,-0.420166015625,5.625,9.0625,13.25,35.08203125
1708,0.99462890625,0.083984375,-0.420166015625,5.625,9.0625,13.25,35.08203125
1710,0.9716796875,0.052978515625,-0.420166015625,3.75,8.25,13.625,35.08203125
1712,0.9716796875,0.052978515625,-0.420166015625,3.75,8.25,13.625,35.08203125
1714,0.96142578125,0.035400390625,-0.407470703125,2.6875,9.25,13.1875,35.08203125
1716,0.96142578125,0.035400390625,-0.407470703125,2.6875,9.25,13.1875,35.08203125
1719,0.965576171875,0.036865234375,-0.383544921875,2.375,10.625,12.0625,35.08203125
1721,0.965576171875,0.036865234375,-0.383544921875,2.375,10.625,12.0625,35.08203125
1722,0.970703125,0.04345703125,-0.35693359375,2.375,11.1875,10.625,35.08203125
1724,0.970703125,0.04345703125,-0.35693359375,2.375,11.1875,10.625,35.08203125
1726,0.970703125,0.04345703125,-0.35693359375,2.375,11.1875,10.625,35.08203125
1728,0.9658203125,0.04345703125,-0.335693359375,1.8125,10.0625,9.3125,35.08203125
1730,0.9658203125,0.04345703125,-0.335693359375,1.8125,10.0625,9.3125,35.08203125
1732,0.950927734375,0.03955078125,-0.318603515625,0.5,8.25,8.5,35.08203125
1734,0.950927734375,0.03955078125,-0.318603515625,0.5,8.25,8.5,35.08203125
1736,0.93701171875,0.035400390625,-0.304931640625,-1.0625,6.875,8.1875,35.08203125
1738,0.93701171875,0.035400390625,-0.304931640625,-1.0625,6.875,8.1875,35.08203125
1740,0.93701171875,0.035400390625,-0.304931640625,-1.0625,6.875,8.0,35.08203125
1742,0.93310546875,0.043701171875,-0.296875,-2.0,6.625,8.0,35.08203125
1744,0.93310546875,0.043701171875,-0.296875,-2.0,6.625,8.0,35.08203125
1746,0.926513671875,0.06298828125,-0.297119140625,-2.25,6.25,8.0,35.08203125
1748,0.926513671875,0.06298828125,-0.297119140625,-2.25,6.25,8.0,35.08203125
1749,0.908203125,0.07177734375,-0.299560546875,-2.125,5.125,8.5,35.08203125
1751,0.908203125,0.07177734375,-0.299560546875,-2.125,5.125,8.5,35.08203125
1753,0.875,0.07080078125,-0.3095703125,-2.5,3.5625,8.4375,35.08203125
1755,0.875,0.07080078125,-0.3095703125,-2.5,3.5625,8.4375,35.08203125
1757,0.875,0.07080078125,-0.3095703125,-2.5,3.5625,8.4375,35.08203125
1759,0.835693359375,0.070556640625,-0.325439453125,-3.75,1.9375,8.625,35.08203125
1761,0.835693359375,0.070556640625,-0.325439453125,-3.75,1.9375,8.625,35.08203125
1763,0.80908203125,0.070556640625,-0.345703125,-5.8125,1.125,9.5625,35.08203125
1765,0.80908203125,0.070556640625,-0.345703125,-5.8125,1.125,9.5625,35.08203125
1767,0.794189453125,0.074462890625,-0.36328125,-7.4375,2.0625,10.8125,35.08203125
1769,0.794189453125,0.074462890625,-0.36328125,-7.4375,2.0625,10.8125,35.08203125
1771,0.780517578125,0.092041015625,-0.376708984375,-8.0625,4.3125,12.25,35.08203125
1773,0.780517578125,0.092041015625,-0.376708984375,-8.0625,4.3125,12.25,35.08203125
1775,0.780517578125,0.092041015625,-0.376708984375,-8.0625,4.3125,12.25,35.08203125
1777,0.769775390625,0.111328125,-0.3935546875,-8.375,6.5,13.75,35.08203125
1779,0.769775390625,0.111328125,-0.3935546875,-8.375,6.5,13.75,35.08203125
1780,0.76220703125,0.11376953125,-0.412353515625,-8.25,7.9375,14.9375,35.08203125
1782,0.76220703125,0.11376953125,-0.412353515625,-8.25,7.9375,14.9375,35.08203125
1784,0.75439453125,0.10693359375,-0.432373046875,-7.75,9.4375,15.4375,35.08203125
1787,0.75439453125,0.10693359375,-0.432373046875,-7.75,9.4375,15.4375,35.08203125
1790,0.75048828125,0.095947265625,-0.440673828125,-7.375,11.4375,15.4375,35.08203125
1793,0.7578125,0.094482421875,-0.43603515625,-7.0625,14.0,15.3125,35.08203125
1795,0.7578125,0.094482421875,-0.43603515625,-7.0625,14.0,15.3125,35.08203125
1797,0.773193359375,0.106689453125,-0.429931640625,-6.9375,16.5,15.625,35.08203125
1799,0.773193359375,0.106689453125,-0.429931640625,-6.9375,16.5,15.625,35.08203125
1801,0.773193359375,0.106689453125,-0.429931640625,-6.9375,16.5,15.625,35.08203125
1803,0.78466796875,0.119384765625,-0.427490234375,-7.0625,18.4375,16.3125,35.08203125
1805,0.78466796875,0.119384765625,-0.427490234375,-7.0625,18.4375,16.3125,35.08203125
1807,0.78955078125,0.126708984375,-0.42431640625,-6.6875,19.6875,16.75,35.08203125
1809,0.78955078125,0.126708984375,-0.42431640625,-6.6875,19.6875,16.75,35.08203125
1812,0.7919921875,0.13037109375,-0.41455078125,-6.125,20.5,16.8125,35.08203125
1813,0.7919921875,0.13037109375,-0.41455078125,-6.125,20.5,16.8125,35.08203125
1815,0.801513671875,0.12939453125,-0.415283203125,-5.6875,20.75,16.875,35.08203125
1817,0.801513671875,0.12939453125,-0.415283203125,-5.6875,20.75,16.875,35.08203125
1819,0.816650390625,0.12841796875,-0.418212890625,-5.4375,20.75,16.3125,35.08203125
1821,0.816650390625,0.12841796875,-0.418212890625,-5.4375,20.75,16.3125,35.08203125
1823,0.816650390625,0.12841796875,-0.418212890625,-5.4375,20.75,16.3125,35.08203125
1825,0.831787109375,0.13916015625,-0.413818359375,-5.375,21.1875,16.0,35.10546875
1827,0.831787109375,0.13916015625,-0.413818359375,-5.375,21.1875,16.0,35.10546875
1830,0.84033203125,0.154052734375,-0.40771484375,-5.0,21.8125,15.9375,35.10546875
1832,0.84033203125,0.154052734375,-0.40771484375,-5.0,21.8125,15.9375,35.10546875
1834,0.841552734375,0.1630859375,-0.395751953125,-4.5,21.5625,15.5,35.10546875
1836,0.841552734375,0.1630859375,-0.395751953125,-4.5,21.5625,15.5,35.10546875
1838,0.842529296875,0.161376953125,-0.379150390625,-4.5625,20.25,14.9375,35.10546875
1840,0.842529296875,0.161376953125,-0.379150390625,-4.5625,20.25,14.9375,35.10546875
1841,0.842529296875,0.161376953125,-0.379150390625,-5.625,17.6875,15.0,35.10546875
1844,0.843017578125,0.161376953125,-0.36376953125,-5.625,17.6875,15.0,35.10546875
1846,0.837646484375,0.164306640625,-0.357421875,-7.6875,14.875,15.5625,35.10546875
1848,0.837646484375,0.164306640625,-0.357421875,-7.6875,14.875,15.5625,35.10546875
1850,0.837646484375,0.164306640625,-0.357421875,-7.6875,14.875,15.5625,35.10546875
1852,0.83154296875,0.166259765625,-0.349609375,-10.3125,13.0625,16.125,35.10546875
1854,0.83154296875,0.166259765625,-0.349609375,-10.3125,13.0625,16.125,35.10546875
1856,0.82568359375,0.168701171875,-0.3359375,-12.5625,12.0625,17.375,35.10546875
1858,0.82568359375,0.168701171875,-0.3359375,-12.5625,12.0625,17.375,35.10546875
1860,0.821044921875,0.1630859375,-0.324951171875,-13.625,10.6875,18.875,35.10546875
1862,0.821044921875,0.1630859375,-0.324951171875,-13.625,10.6875,18.875,35.10546875
1864,0.82470703125,0.15087890625,-0.32177734375,-14.3125,8.4375,19.625,35.10546875
1866,0.82470703125,0.15087890625,-0.32177734375,-14.3125,8.4375,19.625,35.10546875
1868,0.82470703125,0.15087890625,-0.32177734375,-14.3125,8.4375,19.625,35.10546875
1870,0.824951171875,0.14306640625,-0.32177734375,-15.0625,5.625,19.625,35.10546875
1871,0.824951171875,0.14306640625,-0.32177734375,-15.0625,5.625,19.625,35.10546875
1873,0.820556640625,0.14599609375,-0.333984375,-15.3125,3.1875,19.125,35.10546875
1875,0.820556640625,0.14599609375,-0.333984375,-15.3125,3.1875,19.125,35.10546875
1878,0.81689453125,0.151611328125,-0.353515625,-14.1875,1.8125,18.3125,35.10546875
1880,0.81689453125,0.151611328125,-0.353515625,-14.1875,1.8125,18.3125,35.10546875
1882,0.816650390625,0.148193359375,-0.3701171875,-11.5,1.75,16.875,35.10546875
1884,0.816650390625,0.148193359375,-0.3701171875,-11.5,1.75,16.875,35.10546875
1886,0.816650390625,0.148193359375,-0.3701171875,-11.5,1.75,16.875,35.10546875
1887,0.82470703125,0.136962890625,-0.385498046875,-7.8125,2.3125,14.875,35.10546875
1889,0.82470703125,0.136962890625,-0.385498046875,-7.8125,2.3125,14.875,35.10546875
1891,0.838623046875,0.125,-0.399169921875,-4.1875,2.875,12.9375,35.10546875
1893,0.838623046875,0.125,-0.399169921875,-4.1875,2.875,12.9375,35.10546875
1895,0.848876953125,0.117919921875,-0.41015625,-1.125,4.0,11.3125,35.10546875
1897,0.848876953125,0.117919921875,-0.41015625,-1.125,4.0,11.3125,35.10546875
1899,0.847900390625,0.108642578125,-0.413330078125,1.375,6.125,9.75,35.10546875
1901,0.847900390625,0.108642578125,-0.413330078125,1.375,6.125,9.75,35.10546875
1903,0.847900390625,0.108642578125,-0.413330078125,1.375,6.125,9.75,35.10546875
1905,0.843017578125,0.0927734375,-0.418701171875,3.5625,9.0625,8.875,35.10546875
1907,0.843017578125,0.0927734375,-0.418701171875,3.5625,9.0625,8.875,35.10546875
1909,0.846435546875,0.07470703125,-0.41943359375,5.5625,12.5625,8.8125,35.10546875
1911,0.846435546875,0.07470703125,-0.41943359375,5.5625,12.5625,8.8125,35.10546875
1913,0.8603515625,0.066162109375,-0.404296875,7.75,17.1875,9.1875,35.10546875
1915,0.8603515625,0.066162109375,-0.404296875,7.75,17.1875,9.1875,35.10546875
1917,0.87841796875,0.065185546875,-0.3798828125,9.5,21.5,9.9375,35.10546875
1919,0.87841796875,0.065185546875,-0.3798828125,9.5,21.5,9.9375,35.10546875
1921,0.87841796875,0.065185546875,-0.3798828125,9.5,21.5,9.9375,35.10546875
1923,0.892578125,0.062255859375,-0.353515625,10.0,23.9375,10.6875,35.10546875
1925,0.892578125,0.062255859375,-0.353515625,10.0,23.9375,10.6875,35.10546875
1927,0.89404296875,0.054443359375,-0.331787109375,9.625,24.125,11.625,35.10546875
1929,0.89404296875,0.054443359375,-0.331787109375,9.625,24.125,11.625,35.10546875
1931,0.900146484375,0.041015625,-0.31201171875,8.8125,23.8125,12.6875,35.10546875
1933,0.900146484375,0.041015625,-0.31201171875,8.8125,23.8125,12.6875,35.10546875
1935,0.919189453125,0.029296875,-0.297119140625,7.6875,24.375,13.75,35.10546875
1937,0.919189453125,0.029296875,-0.297119140625,7.6875,24.375,13.75,35.10546875
1939,0.919189453125,0.029296875,-0.297119140625,7.6875,24.375,13.75,35.10546875
1940,0.936767578125,0.02978515625,-0.287109375,6.8125,25.0625,14.875,35.10546875
1942,0.936767578125,0.02978515625,-0.287109375,6.8125,25.0625,14.875,35.10546875
1945,0.944091796875,0.037109375,-0.287109375,5.9375,24.4375,16.125,35.10546875
1947,0.944091796875,0.037109375,-0.287109375,5.9375,24.4375,16.125,35.10546875
1949,0.931640625,0.044677734375,-0.291259765625,5.0,22.9375,16.9375,35.10546875
1951,0.931640625,0.044677734375,-0.291259765625,5.0,22.9375,16.9375,35.10546875
1953,0.912109375,0.045654296875,-0.30029296875,4.3125,20.5,17.5625,35.10546875
1955,0.912109375,0.045654296875,-0.30029296875,4.3125,20.5,17.5625,35.10546875
1956,0.912109375,0.045654296875,-0.30029296875,4.3125,20.5,17.5625,35.10546875
1958,0.907958984375,0.041015625,-0.311767578125,3.9375,18.875,17.75,35.10546875
1960,0.907958984375,0.041015625,-0.311767578125,3.9375,18.875,17.75,35.10546875
1962,0.9208984375,0.040771484375,-0.31396484375,4.0625,18.625,17.625,35.10546875
1964,0.9208984375,0.040771484375,-0.31396484375,4.0625,18.625,17.625,35.10546875
1966,0.934326171875,0.052001953125,-0.31201171875,4.25,19.5,17.6875,35.09765625
1968,0.934326171875,0.052001953125,-0.31201171875,4.25,19.5,17.6875,35.09765625
1970,0.94189453125,0.06494140625,-0.314453125,4.3125,19.75,17.6875,35.09765625
1972,0.94189453125,0.06494140625,-0.314453125,4.3125,19.75,17.6875,35.09765625
1974,0.94189453125,0.06494140625,-0.314453125,4.3125,19.75,17.6875,35.09765625
1976,0.939697265625,0.069580078125,-0.32177734375,4.875,19.1875,17.4375,35.09765625
1978,0.939697265625,0.069580078125,-0.32177734375,4.875,19.1875,17.4375,35.09765625
1980,0.935546875,0.070556640625,-0.333984375,5.375,18.3125,16.5625,35.09765625
1982,0.935546875,0.070556640625,-0.333984375,5.375,18.3125,16.5625,35.09765625
1984,0.936279296875,0.07080078125,-0.34326171875,6.125,18.125,15.6875,35.09765625
1986,0.936279296875,0.07080078125,-0.34326171875,6.125,18.125,15.6875,35.09765625
1988,0.936279296875,0.07080078125,-0.34326171875,6.125,18.4375,14.75,35.09765625
1990,0.941162109375,0.07080078125,-0.34912109375,7.4375,18.4375,14.75,35.09765625
1992,0.941162109375,0.07080078125,-0.34912109375,7.4375,18.4375,14.75,35.09765625
1994,0.9462890625,0.07080078125,-0.355712890625,8.625,18.8125,13.75,35.09765625
1996,0.9462890625,0.07080078125,-0.355712890625,8.625,18.8125,13.75,35.09765625
1998,0.946533203125,0.0712890625,-0.369140625,9.5625,18.4375,12.6875,35.09765625
1999,0.946533203125,0.0712890625,-0.369140625,9.5625,18.4375,12.6875,35.09765625
2001,0.939208984375,0.0712890625,-0.3857421875,10.0,17.625,11.5625,35.09765625
2003,0.939208984375,0.0712890625,-0.3857421875,10.0,17.625,11.5625,35.09765625
2005,0.939208984375,0.0712890625,-0.3857421875,10.0,17.625,11.5625,35.09765625
2007,0.93359375,0.06689453125,-0.40576171875,10.625,16.9375,10.5625,35.09765625
2009,0.93359375,0.06689453125,-0.40576171875,10.625,16.9375,10.5625,35.09765625
2011,0.934326171875,0.06005859375,-0.419677734375,11.75,17.6875,9.8125,35.09765625
2013,0.934326171875,0.06005859375,-0.419677734375,11.75,17.6875,9.8125,35.09765625
2015,0.939208984375,0.0556640625,-0.425537109375,12.9375,19.5,9.1875,35.09765625
2017,0.939208984375,0.0556640625,-0.425537109375,12.9375,19.5,9.1875,35.09765625
2019,0.947021484375,0.0498046875,-0.42578125,13.8125,21.125,9.1875,35.09765625
2021,0.947021484375,0.0498046875,-0.42578125,13.8125,21.125,9.1875,35.09765625
2023,0.947021484375,0.0498046875,-0.42578125,14.4375,22.4375,9.4375,35.09765625
2025,0.953125,0.051513671875,-0.419189453125,14.4375,22.4375,9.4375,35.09765625
2027,0.953125,0.051513671875,-0.419189453125,14.4375,22.4375,9.4375,35.09765625
2029,0.95654296875,0.05810546875,-0.414794921875,14.9375,23.25,9.875,35.09765625
2031,0.95654296875,0.05810546875,-0.414794921875,14.9375,23.25,9.875,35.09765625
2033,0.961181640625,0.05908203125,-0.413330078125,15.125,23.5625,10.3125,35.09765625
2035,0.961181640625,0.05908203125,-0.413330078125,15.125,23.5625,10.3125,35.09765625
2037,0.97119140625,0.056884765625,-0.411865234375,15.5,23.5,11.0,35.09765625
2039,0.97119140625,0.056884765625,-0.411865234375,15.5,23.5,11.0,35.09765625
2041,0.97607421875,0.0556640625,-0.405517578125,16.0625,23.375,11.875,35.09765625
2043,0.97607421875,0.0556640625,-0.405517578125,16.0625,23.375,11.875,35.09765625
2046,0.97509765625,0.054931640625,-0.39892578125,16.625,23.3125,12.75,35.09765625
2048,0.97509765625,0.054931640625,-0.39892578125,16.625,23.3125,12.75,35.09765625
2049,0.97509765625,0.054931640625,-0.39892578125,16.625,23.3125,12.75,35.09765625
2051,0.967041015625,0.050537109375,-0.397705078125,17.25,22.625,13.75,35.09765625
2053,0.967041015625,0.050537109375,-0.397705078125,17.25,22.625,13.75,35.09765625
2055,0.954833984375,0.044921875,-0.40869140625,17.5,21.25,14.25,35.09765625
2058,0.954833984375,0.044921875,-0.40869140625,17.5,21.25,14.25,35.09765625
2060,0.943359375,0.037353515625,-0.4326171875,17.8125,19.5,14.3125,35.09765625
2062,0.943359375,0.037353515625,-0.4326171875,17.8125,19.5,14.3125,35.09765625
2063,0.934326171875,0.02685546875,-0.459716796875,18.25,18.4375,13.9375,35.09765625
2065,0.934326171875,0.02685546875,-0.459716796875,18.25,18.4375,13.9375,35.09765625
2067,0.934326171875,0.02685546875,-0.459716796875,18.25,18.4375,13.9375,35.09765625
2069,0.9267578125,0.020263671875,-0.486083984375,18.5,18.375,13.75,35.09765625
2071,0.9267578125,0.020263671875,-0.486083984375,18.5,18.375,13.75,35.09765625
2073,0.92138671875,0.018310546875,-0.5029296875,18.5625,19.125,13.6875,35.09765625
2075,0.92138671875,0.018310546875,-0.5029296875,18.5625,19.125,13.6875,35.09765625
2077,0.91845703125,0.0166015625,-0.519287109375,18.5625,19.875,13.9375,35.09765625
2080,0.91845703125,0.0166015625,-0.519287109375,18.5625,19.875,13.9375,35.09765625
2082,0.91845703125,0.015380859375,-0.538818359375,18.3125,20.0,14.0625,35.09765625
2083,0.91845703125,0.015380859375,-0.538818359375,18.3125,20.0,14.0625,35.09765625
2085,0.917724609375,0.013916015625,-0.557373046875,17.875,20.0,14.3125,35.09765625
2087,0.917724609375,0.013916015625,-0.557373046875,17.875,20.0,14.3125,35.09765625
2089,0.917724609375,0.013916015625,-0.557373046875,17.875,20.0,14.3125,35.09765625
2091,0.919921875,0.00634765625,-0.574951171875,17.4375,20.25,14.1875,35.09765625
2093,0.919921875,0.00634765625,-0.574951171875,17.4375,20.25,14.1875,35.09765625
2095,0.92626953125,-0.000732421875,-0.588134765625,17.25,21.1875,13.8125,35.09765625
2097,0.92626953125,-0.000732421875,-0.588134765625,17.25,21.1875,13.8125,35.09765625
2099,0.930908203125,-0.011474609375,-0.59326171875,17.1875,22.1875,13.5625,35.09765625
2101,0.930908203125,-0.011474609375,-0.59326171875,17.1875,22.1875,13.5625,35.09765625
2103,0.935791015625,-0.02880859375,-0.593994140625,17.9375,23.3125,13.0625,35.09765625
2105,0.935791015625,-0.02880859375,-0.593994140625,17.9375,23.3125,13.0625,35.09765625
2107,0.935791015625,-0.02880859375,-0.593994140625,17.9375,23.3125,13.0625,35.09765625
2109,0.941162109375,-0.04052734375,-0.593017578125,18.25,24.3125,12.5,35.08984375
2111,0.941162109375,-0.04052734375,-0.593017578125,18.25,24.3125,12.5,35.08984375
2113,0.9482421875,-0.04833984375,-0.59228515625,18.125,24.875,11.375,35.08984375
2115,0.9482421875,-0.04833984375,-0.59228515625,18.125,24.875,11.375,35.08984375
2117,0.95751953125,-0.058837890625,-0.58984375,17.6875,24.6875,9.6875,35.08984375
2119,0.95751953125,-0.058837890625,-0.58984375,17.6875,24.6875,9.6875,35.08984375
2120,0.95751953125,-0.058837890625,-0.58984375,17.6875,23.875,8.0625,35.08984375
2123,0.9697265625,-0.072265625,-0.57861328125,16.5625,23.875,8.0625,35.08984375
2125,0.9697265625,-0.072265625,-0.57861328125,0.5625,23.0,7.0625,35.08984375
2127,0.982177734375,-0.08349609375,-0.56005859375,15.5625,23.0,7.0625,35.08984375
2129,0.982177734375,-0.08349609375,-0.56005859375,15.5625,23.0,7.0625,35.08984375
2131,0.99365234375,-0.0869140625,-0.5498046875,14.1875,21.5625,6.8125,35.08984375
2132,0.99365234375,-0.0869140625,-0.5498046875,14.1875,21.5625,6.8125,35.08984375
2134,1.007080078125,-0.084716796875,-0.547607421875,12.0625,18.875,6.5,35.08984375
2136,1.007080078125,-0.084716796875,-0.547607421875,12.0625,18.875,6.5,35.08984375
2138,1.007080078125,-0.084716796875,-0.546875,9.4375,14.6875,5.8125,35.08984375
2140,1.013916015625,-0.08447265625,-0.546875,9.4375,14.6875,5.8125,35.08984375
2142,1.013916015625,-0.08447265625,-0.546875,9.4375,14.6875,5.8125,35.08984375
2145,1.008544921875,-0.08740234375,-0.549072265625,6.5625,9.375,4.875,35.08984375
2147,1.008544921875,-0.08740234375,-0.549072265625,6.5625,9.375,4.875,35.08984375
2149,0.99169921875,-0.091064453125,-0.546630859375,3.4375,3.5,3.4375,35.08984375
2151,0.99169921875,-0.091064453125,-0.546630859375,3.4375,3.5,3.4375,35.08984375
2153,0.966552734375,-0.09326171875,-0.54296875,0.25,-2.4375,1.75,35.08984375
2155,0.966552734375,-0.09326171875,-0.54296875,0.25,-2.4375,1.75,35.08984375
2156,0.93994140625,-0.092041015625,-0.546630859375,-2.75,-8.25,0.0625,35.08984375
2158,0.93994140625,-0.092041015625,-0.546630859375,-2.75,-8.25,0.0625,35.08984375
2160,0.93994140625,-0.092041015625,-0.546630859375,-2.75,-8.25,0.0625,35.08984375
2162,0.910400390625,-0.088623046875,-0.5625,-5.375,-13.4375,-2.25,35.08984375
2164,0.910400390625,-0.088623046875,-0.5625,-5.375,-13.4375,-2.25,35.08984375
2166,0.87744140625,-0.0830078125,-0.5830078125,-7.375,-17.8125,-5.125,35.08984375
2168,0.87744140625,-0.0830078125,-0.5830078125,-7.375,-17.8125,-5.125,35.08984375
2170,0.85107421875,-0.073486328125,-0.594970703125,-9.125,-20.875,-8.5625,35.08984375
2172,0.85107421875,-0.073486328125,-0.594970703125,-9.125,-20.875,-8.5625,35.08984375
2174,0.83544921875,-0.058349609375,-0.605712890625,-10.6875,-23.3125,-12.4375,35.08984375
2176,0.83544921875,-0.058349609375,-0.605712890625,-10.6875,-23.3125,-12.4375,35.08984375
2178,0.83544921875,-0.058349609375,-0.605712890625,-10.6875,-23.3125,-12.4375,35.08984375
2180,0.829833984375,-0.03955078125,-0.62109375,-10.9375,-24.5,-17.125,35.08984375
2182,0.829833984375,-0.03955078125,-0.62109375,-10.9375,-24.5,-17.125,35.08984375
2185,0.82421875,-0.021240234375,-0.62548828125,-9.875,-24.0625,-21.9375,35.08984375
2188,0.828125,-0.008544921875,-0.632080078125,-7.375,-22.125,-27.0,35.08984375
2190,0.828125,-0.008544921875,-0.632080078125,-7.375,-22.125,-27.0,35.08984375
2193,0.836669921875,-0.002197265625,-0.63232421875,-4.375,-18.5,-30.875,35.08984375
2195,0.836669921875,-0.002197265625,-0.63232421875,-4.375,-18.5,-30.875,35.08984375
2197,0.852294921875,0.004638671875,-0.61767578125,-1.5625,-14.5625,-34.1875,35.08984375
2199,0.852294921875,0.004638671875,-0.61767578125,-1.5625,-14.5625,-34.1875,35.08984375
2201,0.878662109375,0.01123046875,-0.587646484375,0.0,-10.6875,-36.6875,35.08984375
2202,0.878662109375,0.01123046875,-0.587646484375,0.0,-10.6875,-36.6875,35.08984375
2205,0.878662109375,0.01123046875,-0.587646484375,0.0,-10.6875,-37.5,35.08984375
2207,0.9130859375,0.015625,-0.552001953125,0.75,-7.4375,-37.5,35.08984375
2208,0.9130859375,0.015625,-0.552001953125,0.75,-7.4375,-37.5,35.08984375
2210,0.944580078125,0.0205078125,-0.5107421875,1.3125,-4.6875,-37.1875,35.08984375
2213,0.944580078125,0.0205078125,-0.5107421875,1.3125,-4.6875,-37.1875,35.08984375
2215,0.966064453125,0.02490234375,-0.469970703125,2.125,-2.9375,-36.1875,35.08984375
2217,0.966064453125,0.02490234375,-0.469970703125,2.125,-2.9375,-36.1875,35.08984375
2219,0.987060546875,0.02734375,-0.4345703125,2.4375,-2.625,-34.375,35.08984375
2221,0.987060546875,0.02734375,-0.4345703125,2.4375,-2.625,-34.375,35.08984375
2223,1.004638671875,0.025146484375,-0.400146484375,1.75,-3.8125,-32.0625,35.08984375
2225,1.004638671875,0.025146484375,-0.400146484375,1.75,-3.8125,-32.0625,35.08984375
2227,1.004638671875,0.025146484375,-0.370361328125,0.4375,-6.1875,-29.0625,35.08984375
2229,1.020751953125,0.01513671875,-0.370361328125,0.4375,-6.1875,-29.0625,35.08984375
2231,1.020751953125,0.01513671875,-0.370361328125,0.4375,-6.1875,-25.375,35.08984375
2233,1.0341796875,0.000244140625,-0.349365234375,-1.4375,-10.0,-25.375,35.08984375
2236,1.0341796875,0.000244140625,-0.34130859375,-3.75,-14.375,-21.5625,35.08984375
2238,1.037353515625,-0.008056640625,-0.34130859375,-3.75,-14.375,-21.5625,35.08984375
2240,1.037353515625,-0.008056640625,-0.34130859375,-3.75,-14.375,-21.5625,35.08984375
2241,1.03173828125,-0.01416015625,-0.34130859375,-6.6875,-18.5,-17.9375,35.08984375
2243,1.03173828125,-0.01416015625,-0.34130859375,-6.6875,-18.5,-17.9375,35.08984375
2246,1.016357421875,-0.022705078125,-0.348388671875,-9.5625,-22.6875,-14.375,35.08984375
2248,1.016357421875,-0.022705078125,-0.348388671875,-9.5625,-22.6875,-14.375,35.08984375
2250,0.992431640625,-0.031005859375,-0.369384765625,-12.0,-26.5,-10.875,35.109375
2252,0.992431640625,-0.031005859375,-0.369384765625,-12.0,-26.5,-10.875,35.109375
2253,0.992431640625,-0.031005859375,-0.369384765625,-12.0,-26.5,-8.0625,35.109375
2255,0.971435546875,-0.039306640625,-0.393310546875,-13.8125,-28.8125,-8.0625,35.109375
2258,0.971435546875,-0.039306640625,-0.393310546875,-13.8125,-28.8125,-8.0625,35.109375
2260,0.947998046875,-0.046142578125,-0.41796875,-15.8125,-29.9375,-6.6875,35.109375
2261,0.947998046875,-0.046142578125,-0.41796875,-15.8125,-29.9375,-6.6875,35.109375
2263,0.927490234375,-0.0517578125,-0.437255859375,-17.3125,-29.875,-6.4375,35.109375
2265,0.927490234375,-0.0517578125,-0.437255859375,-17.3125,-29.875,-6.4375,35.109375
2267,0.91259765625,-0.052978515625,-0.454833984375,-18.25,-28.5625,-7.125,35.109375
2269,0.91259765625,-0.052978515625,-0.454833984375,-18.25,-28.5625,-7.125,35.109375
2271,0.91259765625,-0.052978515625,-0.454833984375,-18.4375,-26.6875,-8.4375,35.109375
2273,0.900634765625,-0.048828125,-0.47509765625,-18.4375,-26.6875,-8.4375,35.109375
2275,0.900634765625,-0.048828125,-0.47509765625,-18.4375,-26.6875,-8.4375,35.109375
2277,0.89306640625,-0.044189453125,-0.490234375,-17.375,-23.8125,-11.125,35.109375
2279,0.89306640625,-0.044189453125,-0.490234375,-17.375,-23.8125,-11.125,35.109375
2281,0.894775390625,-0.0380859375,-0.4912109375,-15.3125,-20.125,-14.5625,35.109375
2283,0.894775390625,-0.0380859375,-0.4912109375,-15.3125,-20.125,-14.5625,35.109375
2285,0.903076171875,-0.02685546875,-0.48046875,-12.5625,-16.25,-18.3125,35.109375
2287,0.903076171875,-0.02685546875,-0.48046875,-12.5625,-16.25,-18.3125,35.109375
2289,0.903076171875,-0.014404296875,-0.467529296875,-9.5,-12.9375,-21.9375,35.109375
2291,0.9169921875,-0.014404296875,-0.467529296875,-9.5,-12.9375,-21.9375,35.109375
2293,0.9169921875,-0.014404296875,-0.467529296875,-9.5,-12.9375,-21.9375,35.109375
2295,0.9306640625,-0.003662109375,-0.4560546875,-6.625,-10.6875,-25.0625,35.109375
2296,0.9306640625,-0.003662109375,-0.4560546875,-6.625,-10.6875,-25.0625,35.109375
2298,0.9326171875,0.0048828125,-0.445556640625,-4.3125,-9.125,-27.6875,35.109375
2301,0.9326171875,0.0048828125,-0.445556640625,-4.3125,-9.125,-27.6875,35.109375
2303,0.927978515625,0.009033203125,-0.4365234375,-2.5,-8.25,-30.25,35.109375
2305,0.927978515625,0.009033203125,-0.4365234375,-2.5,-8.25,-30.25,35.109375
2307,0.92919921875,0.007080078125,-0.41650390625,-1.9375,-8.0625,-32.125,35.109375
2309,0.92919921875,0.007080078125,-0.41650390625,-1.9375,-8.0625,-32.125,35.109375
2311,0.92919921875,0.007080078125,-0.41650390625,-1.9375,-8.0625,-32.125,35.109375
2312,0.9443359375,0.009033203125,-0.386962890625,-2.625,-8.6875,-32.6875,35.109375
2314,0.9443359375,0.009033203125,-0.386962890625,-2.625,-8.6875,-32.6875,35.109375
2316,0.961669921875,0.0234375,-0.3623046875,-4.0,-10.4375,-31.625,35.109375
2318,0.961669921875,0.0234375,-0.3623046875,-4.0,-10.4375,-31.625,35.109375
2320,0.96630859375,0.04638671875,-0.34716796875,-5.75,-12.9375,-29.875,35.109375
2322,0.96630859375,0.04638671875,-0.34716796875,-5.75,-12.9375,-29.875,35.109375
2324,0.96630859375,0.04638671875,-0.346923828125,-6.875,-16.375,-28.25,35.109375
2326,0.960693359375,0.067138671875,-0.346923828125,-6.875,-16.375,-28.25,35.109375
2328,0.960693359375,0.067138671875,-0.346923828125,-6.875,-16.375,-28.25,35.109375
2330,0.948486328125,0.07861328125,-0.35595703125,-7.25,-20.75,-27.125,35.109375
2332,0.948486328125,0.07861328125,-0.35595703125,-7.25,-20.75,-27.125,35.109375
2334,0.928955078125,0.0830078125,-0.37548828125,-7.0625,-24.5,-25.9375,35.109375
2336,0.928955078125,0.0830078125,-0.37548828125,-7.0625,-24.5,-25.9375,35.109375
2338,0.928955078125,0.0830078125,-0.401611328125,-7.4375,-26.875,-24.1875,35.109375
2339,0.907958984375,0.0810546875,-0.401611328125,-7.4375,-26.875,-24.1875,35.109375
2341,0.907958984375,0.0810546875,-0.401611328125,-7.4375,-26.875,-24.1875,35.109375
2344,0.89453125,0.0751953125,-0.4150390625,-8.8125,-27.6875,-22.25,35.109375
2346,0.89453125,0.0751953125,-0.4150390625,-8.8125,-27.6875,-22.25,35.109375
2348,0.895263671875,0.07666015625,-0.421630859375,-10.875,-26.875,-20.0625,35.109375
2350,0.895263671875,0.07666015625,-0.421630859375,-10.875,-26.875,-20.0625,35.109375
2351,0.900146484375,0.0859375,-0.43212890625,-12.4375,-24.625,-17.625,35.109375
2353,0.900146484375,0.0859375,-0.43212890625,-12.4375,-24.625,-17.625,35.109375
2355,0.900146484375,0.10400390625,-0.440185546875,-12.8125,-21.625,-15.125,35.109375
2357,0.901123046875,0.10400390625,-0.440185546875,-12.8125,-21.625,-15.125,35.109375
2359,0.901123046875,0.10400390625,-0.440185546875,-12.8125,-21.625,-15.125,35.109375
2361,0.90283203125,0.1171875,-0.4560546875,-12.0,-18.125,-13.1875,35.109375
2364,0.90283203125,0.1171875,-0.4560546875,-12.0,-14.125,-12.9375,35.109375
2369,0.914794921875,0.120361328125,-0.47216796875,-9.625,-14.125,-12.9375,35.109375
2370,0.936767578125,0.11669921875,-0.4716796875,-6.25,-8.8125,-13.4375,35.109375
2372,0.936767578125,0.11669921875,-0.4716796875,-6.25,-8.8125,-13.4375,35.109375
2374,0.96484375,0.114013671875,-0.4501953125,-3.0,-2.3125,-14.4375,35.109375
2376,0.96484375,0.114013671875,-0.4501953125,-3.0,-2.3125,-14.4375,35.109375
2378,0.995361328125,0.113037109375,-0.421142578125,0.0625,3.5625,-15.375,35.109375
2380,0.995361328125,0.113037109375,-0.421142578125,0.0625,3.5625,-15.375,35.109375
2382,0.995361328125,0.113037109375,-0.421142578125,3.5625,7.6875,-16.5,35.109375
2384,1.021728515625,0.1103515625,-0.404296875,3.5625,7.6875,-16.5,35.109375
2386,1.021728515625,0.1103515625,-0.404296875,3.5625,7.6875,-16.5,35.109375
2388,1.0390625,0.1025390625,-0.382568359375,6.625,10.25,-18.0,35.109375
2390,1.0390625,0.1025390625,-0.382568359375,6.625,10.25,-18.0,35.109375
2392,1.052490234375,0.090087890625,-0.348388671875,9.125,11.375,-19.9375,35.11328125
2394,1.052490234375,0.090087890625,-0.348388671875,9.125,11.375,-19.9375,35.11328125
2396,1.0654296875,0.08203125,-0.317626953125,10.875,10.625,-21.625,35.11328125
2398,1.0654296875,0.08203125,-0.317626953125,10.875,10.625,-21.625,35.11328125
2400,1.072265625,0.0830078125,-0.29248046875,11.3125,8.125,-22.9375,35.11328125
2402,1.072265625,0.0830078125,-0.29248046875,11.3125,8.125,-22.9375,35.11328125
2404,1.072265625,0.0830078125,-0.29248046875,11.3125,8.125,-22.9375,35.11328125
2406,1.072998046875,0.08251953125,-0.268798828125,10.375,4.375,-23.5625,35.11328125
2408,1.072998046875,0.08251953125,-0.268798828125,10.375,4.375,-23.5625,35.11328125
2409,1.067138671875,0.078125,-0.255126953125,9.3125,0.625,-22.5625,35.11328125
2411,1.067138671875,0.078125,-0.255126953125,9.3125,0.625,-22.5625,35.11328125
2414,1.052734375,0.08251953125,-0.260986328125,7.9375,-2.5,-19.75,35.11328125
2416,1.052734375,0.08251953125,-0.260986328125,7.9375,-2.5,-19.75,35.11328125
2418,1.033935546875,0.08544921875,-0.277099609375,6.3125,-6.3125,-16.5625,35.11328125
2420,1.033935546875,0.08544921875,-0.277099609375,6.3125,-6.3125,-16.5625,35.11328125
2422,1.033935546875,0.08544921875,-0.277099609375,6.3125,-10.5625,-13.25,35.11328125
2424,1.00927734375,0.087646484375,-0.300537109375,4.4375,-10.5625,-13.25,35.11328125
2425,1.00927734375,0.087646484375,-0.300537109375,4.4375,-10.5625,-13.25,35.11328125
2428,0.981689453125,0.09130859375,-0.32861328125,2.0625,-13.875,-10.0,35.11328125
2430,0.981689453125,0.09130859375,-0.32861328125,2.0625,-13.875,-10.0,35.11328125
2432,0.9521484375,0.092529296875,-0.345458984375,-0.625,-16.0625,-6.9375,35.11328125
2434,0.9521484375,0.092529296875,-0.345458984375,-0.625,-16.0625,-6.9375,35.11328125
2436,0.92724609375,0.094970703125,-0.357666015625,-3.4375,-17.5625,-3.625,35.11328125
2438,0.92724609375,0.094970703125,-0.357666015625,-3.4375,-17.5625,-3.625,35.11328125
2440,0.906494140625,0.1044921875,-0.370849609375,-5.875,-18.1875,-0.1875,35.11328125
2442,0.906494140625,0.1044921875,-0.370849609375,-5.875,-18.1875,-0.1875,35.11328125
2444,0.8857421875,0.119873046875,-0.393310546875,-7.3125,-18.25,2.375,35.11328125
2446,0.8857421875,0.119873046875,-0.393310546875,-7.3125,-18.25,2.375,35.11328125
2448,0.8857421875,0.119873046875,-0.393310546875,-7.3125,-18.25,2.375,35.11328125
2450,0.865478515625,0.13330078125,-0.423583984375,-7.625,-17.8125,3.875,35.11328125
2452,0.865478515625,0.13330078125,-0.423583984375,-7.625,-17.8125,3.875,35.11328125
2454,0.844482421875,0.142333984375,-0.44921875,-7.0,-16.5,4.1875,35.11328125
2456,0.844482421875,0.142333984375,-0.44921875,-7.0,-16.5,4.1875,35.11328125
2459,0.8232421875,0.1494140625,-0.472900390625,-5.75,-14.4375,3.5625,35.11328125
2461,0.8232421875,0.1494140625,-0.472900390625,-5.75,-14.4375,3.5625,35.11328125
2463,0.803955078125,0.15478515625,-0.489501953125,-4.0,-11.5625,2.6875,35.11328125
2464,0.803955078125,0.15478515625,-0.489501953125,-4.0,-11.5625,2.6875,35.11328125
2468,0.78564453125,0.158935546875,-0.494873046875,-2.0625,-7.75,2.0,35.11328125
2471,0.782958984375,0.153564453125,-0.489013671875,-0.875,-4.25,1.625,35.11328125
2473,0.782958984375,0.153564453125,-0.489013671875,-0.875,-4.25,1.625,35.11328125
2475,0.782958984375,0.153564453125,-0.489013671875,-0.875,-4.25,1.625,35.11328125
2476,0.79931640625,0.1357421875,-0.4814453125,0.3125,-0.5625,1.1875,35.11328125
2478,0.79931640625,0.1357421875,-0.4814453125,0.3125,-0.5625,1.1875,35.11328125
2480,0.8125,0.12451171875,-0.454833984375,0.75,2.9375,0.75,35.11328125
2483,0.8125,0.12451171875,-0.454833984375,0.75,2.9375,0.75,35.11328125
2485,0.822021484375,0.12158203125,-0.43701171875,0.75,6.0625,1.1875,35.11328125
2487,0.822021484375,0.12158203125,-0.43701171875,0.75,6.0625,1.1875,35.11328125
2489,0.824951171875,0.1171875,-0.41552734375,0.3125,8.125,1.875,35.11328125
2491,0.824951171875,0.1171875,-0.41552734375,0.3125,8.125,1.875,35.11328125
2493,0.824951171875,0.1171875,-0.41552734375,0.3125,8.125,3.0625,35.11328125
2495,0.834228515625,0.107666015625,-0.393310546875,-0.6875,8.8125,3.0625,35.11328125
2496,0.834228515625,0.107666015625,-0.393310546875,-0.6875,8.8125,3.0625,35.11328125
2499,0.8486328125,0.099365234375,-0.3779296875,-1.8125,8.5,4.0625,35.11328125
2501,0.8486328125,0.099365234375,-0.3779296875,-1.8125,8.5,4.0625,35.11328125
2503,0.857666015625,0.0947265625,-0.362060546875,-2.875,7.5,5.125,35.11328125
2505,0.857666015625,0.0947265625,-0.362060546875,-2.875,7.5,5.125,35.11328125
2507,0.8642578125,0.091064453125,-0.343994140625,-3.75,6.1875,6.0,35.11328125
2509,0.8642578125,0.091064453125,-0.343994140625,-3.75,6.1875,6.0,35.11328125
2511,0.873779296875,0.091796875,-0.3330078125,-4.6875,4.5,6.75,35.11328125
2513,0.873779296875,0.091796875,-0.3330078125,-4.6875,4.5,6.75,35.11328125
2515,0.878662109375,0.095458984375,-0.327880859375,-5.25,2.75,7.375,35.11328125
2517,0.878662109375,0.095458984375,-0.327880859375,-5.25,2.75,7.375,35.11328125
2519,0.878662109375,0.095458984375,-0.327880859375,-5.25,2.75,7.375,35.11328125
2521,0.880859375,0.0986328125,-0.323974609375,-5.8125,1.1875,8.0625,35.11328125
2523,0.880859375,0.0986328125,-0.323974609375,-5.8125,1.1875,8.0625,35.11328125
2525,0.88818359375,0.10400390625,-0.324951171875,-6.625,-0.5,9.0,35.11328125
2527,0.88818359375,0.10400390625,-0.324951171875,-6.625,-0.5,9.0,35.11328125
2528,0.889404296875,0.110107421875,-0.33251953125,-7.375,-1.8125,10.1875,35.11328125
2531,0.889404296875,0.110107421875,-0.33251953125,-7.375,-1.8125,10.1875,35.11328125
2533,0.87744140625,0.114013671875,-0.339111328125,-7.875,-2.375,11.1875,35.08203125
2535,0.87744140625,0.114013671875,-0.339111328125,-7.875,-2.375,11.1875,35.08203125
2537,0.87744140625,0.114013671875,-0.339111328125,-7.875,-2.375,11.1875,35.08203125
2539,0.867431640625,0.111572265625,-0.349365234375,-7.875,-2.25,12.1875,35.08203125
2541,0.867431640625,0.111572265625,-0.349365234375,-7.875,-2.25,12.1875,35.08203125
2543,0.859619140625,0.105224609375,-0.359619140625,-7.0625,-1.5625,12.5625,35.08203125
2544,0.859619140625,0.105224609375,-0.359619140625,-7.0625,-1.5625,12.5625,35.08203125
2546,0.8486328125,0.097900390625,-0.369873046875,-5.6875,0.1875,12.25,35.08203125
2548,0.8486328125,0.097900390625,-0.369873046875,-5.6875,0.1875,12.25,35.08203125
2550,0.8486328125,0.097900390625,-0.380126953125,-4.0625,2.5,11.1875,35.08203125
2553,0.836669921875,0.091064453125,-0.380126953125,-4.0625,2.5,11.1875,35.08203125
2555,0.826416015625,0.07275390625,-0.385009765625,-2.375,5.5,9.125,35.08203125
2558,0.826416015625,0.07275390625,-0.385009765625,-2.375,5.5,9.125,35.08203125
2560,0.821044921875,0.051513671875,-0.38720703125,-0.875,8.875,6.1875,35.08203125
2561,0.821044921875,0.051513671875,-0.38720703125,-0.875,8.875,6.1875,35.08203125
2563,0.821044921875,0.051513671875,-0.38720703125,-0.875,8.875,2.625,35.08203125
2565,0.82470703125,0.030517578125,-0.37890625,0.0625,11.6875,2.625,35.08203125
2568,0.82470703125,0.030517578125,-0.37890625,0.0625,11.6875,2.625,35.08203125
2569,0.832763671875,0.01953125,-0.357421875,0.8125,14.75,-0.8125,35.08203125
2571,0.832763671875,0.01953125,-0.357421875,0.8125,14.75,-0.8125,35.08203125
2573,0.83837890625,0.025146484375,-0.34033203125,1.4375,17.5625,-3.6875,35.08203125
2576,0.83837890625,0.025146484375,-0.34033203125,1.4375,17.5625,-3.6875,35.08203125
2578,0.843994140625,0.03564453125,-0.330322265625,2.1875,19.8125,-6.0,35.08203125
2579,0.843994140625,0.03564453125,-0.330322265625,2.1875,19.8125,-6.0,35.08203125
2581,0.845703125,0.0498046875,-0.317626953125,3.25,21.0,-8.0625,35.08203125
2583,0.845703125,0.0498046875,-0.317626953125,3.25,21.0,-8.0625,35.08203125
2585,0.845703125,0.0498046875,-0.317626953125,3.25,21.0,-8.0625,35.08203125
2587,0.853271484375,0.0615234375,-0.300048828125,4.0625,21.5,-10.25,35.08203125
2589,0.853271484375,0.0615234375,-0.300048828125,4.0625,21.5,-10.25,35.08203125
2592,0.86572265625,0.068115234375,-0.28125,3.8125,21.4375,-11.5625,35.08203125
2594,0.86572265625,0.068115234375,-0.28125,3.8125,21.4375,-11.5625,35.08203125
2595,0.8740234375,0.07080078125,-0.2626953125,1.8125,20.5,-11.5,35.08203125
2597,0.8740234375,0.07080078125,-0.2626953125,1.8125,20.5,-11.5,35.08203125
2600,0.875244140625,0.07177734375,-0.24169921875,-0.8125,19.75,-9.6875,35.08203125
2602,0.875244140625,0.07177734375,-0.24169921875,-0.8125,19.75,-9.6875,35.08203125
2604,0.875732421875,0.080810546875,-0.235595703125,-3.625,20.0625,-6.3125,35.08203125
2606,0.875732421875,0.080810546875,-0.235595703125,-3.625,20.0625,-6.3125,35.08203125
2608,0.87353515625,0.096923828125,-0.2392578125,-5.6875,20.4375,-2.0625,35.08203125
2610,0.87353515625,0.096923828125,-0.2392578125,-5.6875,20.4375,-2.0625,35.08203125
2612,0.87353515625,0.096923828125,-0.2392578125,-5.6875,20.4375,-2.0625,35.08203125
2614,0.87109375,0.112548828125,-0.246337890625,-7.5,20.3125,2.0,35.08203125
2616,0.87109375,0.112548828125,-0.246337890625,-7.5,20.3125,2.0,35.08203125
2618,0.866943359375,0.121337890625,-0.251220703125,-8.625,20.0,5.375,35.08203125
2619,0.866943359375,0.121337890625,-0.251220703125,-8.625,20.0,5.375,35.08203125
2622,0.862060546875,0.120849609375,-0.253173828125,-9.4375,19.8125,7.6875,35.08203125
2624,0.862060546875,0.120849609375,-0.253173828125,-9.4375,19.8125,7.6875,35.08203125
2626,0.859375,0.1181640625,-0.252685546875,-10.125,19.9375,9.3125,35.08203125
2628,0.859375,0.1181640625,-0.252685546875,-10.125,19.9375,9.3125,35.08203125
2630,0.859375,0.1181640625,-0.252685546875,-10.125,19.9375,9.3125,35.08203125
2632,0.86181640625,0.116455078125,-0.255615234375,-10.0625,20.6875,10.375,35.08203125
2634,0.86181640625,0.116455078125,-0.255615234375,-10.0625,20.6875,10.375,35.08203125
2636,0.8623046875,0.117919921875,-0.255126953125,-9.3125,22.0625,10.75,35.08203125
2637,0.8623046875,0.117919921875,-0.255126953125,-9.3125,22.0625,10.75,35.08203125
2639,0.861328125,0.109375,-0.24658203125,-7.8125,23.875,9.9375,35.08203125
2641,0.861328125,0.109375,-0.24658203125,-7.8125,23.875,9.9375,35.08203125
2644,0.8642578125,0.09423828125,-0.23779296875,-6.1875,25.6875,8.75,35.08203125
2646,0.8642578125,0.09423828125,-0.23779296875,-6.1875,25.6875,8.75,35.08203125
2648,0.8642578125,0.09423828125,-0.23779296875,-6.1875,25.6875,7.5625,35.08203125
2650,0.875244140625,0.077880859375,-0.21923828125,-4.8125,28.0,7.5625,35.08203125
2652,0.875244140625,0.077880859375,-0.21923828125,-4.8125,28.0,7.5625,35.08203125
2654,0.895751953125,0.06396484375,-0.1904296875,-4.1875,29.9375,5.8125,35.08203125
2656,0.895751953125,0.06396484375,-0.1904296875,-4.1875,29.9375,5.8125,35.08203125
2657,0.9189453125,0.056396484375,-0.159912109375,-4.0,30.875,3.875,35.08203125
2660,0.9189453125,0.056396484375,-0.159912109375,-4.0,30.875,3.875,35.08203125
2663,0.9345703125,0.0556640625,-0.1435546875,-3.375,31.0,1.5,35.08203125
2666,0.94384765625,0.059814453125,-0.1337890625,-2.75,30.0625,-1.0625,35.08203125
2668,0.94384765625,0.059814453125,-0.1337890625,-2.75,30.0625,-1.0625,35.08203125
2670,0.94482421875,0.0634765625,-0.13232421875,-1.9375,28.5625,-3.0625,35.08203125
2672,0.94482421875,0.0634765625,-0.13232421875,-1.9375,28.5625,-3.0625,35.08203125
2674,0.94482421875,0.0634765625,-0.13232421875,-1.9375,28.5625,-3.0625,35.08203125
2676,0.938720703125,0.068603515625,-0.13671875,-1.0,26.6875,-5.375,35.06640625
2678,0.938720703125,0.068603515625,-0.13671875,-1.0,26.6875,-5.375,35.06640625
2680,0.9287109375,0.07373046875,-0.14501953125,-0.3125,25.1875,-7.125,35.06640625
2682,0.9287109375,0.07373046875,-0.14501953125,-0.3125,25.1875,-7.125,35.06640625
2684,0.91845703125,0.0791015625,-0.1513671875,-0.3125,24.5,-8.375,35.06640625
2686,0.91845703125,0.0791015625,-0.1513671875,-0.3125,24.5,-8.375,35.06640625
2688,0.90869140625,0.0830078125,-0.150146484375,-1.0,23.875,-8.9375,35.06640625
2690,0.90869140625,0.0830078125,-0.150146484375,-1.0,23.875,-8.9375,35.06640625
2692,0.90869140625,0.0859375,-0.1484375,-2.5,23.25,-8.625,35.06640625
2694,0.90478515625,0.0859375,-0.1484375,-2.5,23.25,-8.625,35.06640625
2696,0.90478515625,0.0859375,-0.1484375,-2.5,23.25,-8.625,35.06640625
2698,0.907470703125,0.090576171875,-0.146484375,-4.5,22.6875,-7.3125,35.06640625
2700,0.907470703125,0.090576171875,-0.146484375,-4.5,22.6875,-7.3125,35.06640625
2702,0.9013671875,0.100341796875,-0.146484375,-6.1875,23.125,-4.9375,35.06640625
2704,0.9013671875,0.100341796875,-0.146484375,-6.1875,23.125,-4.9375,35.06640625
2705,0.888671875,0.112548828125,-0.150390625,-7.0625,24.5625,-2.1875,35.06640625
2707,0.888671875,0.112548828125,-0.150390625,-7.0625,24.5625,-2.1875,35.06640625
2709,0.888671875,0.112548828125,-0.150390625,-7.0625,24.5625,-2.1875,35.06640625
2711,0.87744140625,0.1181640625,-0.1591796875,-7.875,25.9375,0.875,35.06640625
2714,0.87744140625,0.1181640625,-0.1591796875,-7.875,25.9375,0.875,35.06640625
2716,0.876220703125,0.123779296875,-0.165771484375,-8.5625,27.0625,3.5625,35.06640625
2718,0.876220703125,0.123779296875,-0.165771484375,-8.5625,27.0625,3.5625,35.06640625
2719,0.878662109375,0.130615234375,-0.166748046875,-9.5625,28.25,6.4375,35.06640625
2721,0.878662109375,0.130615234375,-0.166748046875,-9.5625,28.25,6.4375,35.06640625
2723,0.875732421875,0.13427734375,-0.160888671875,-10.5625,29.625,8.9375,35.06640625
2725,0.875732421875,0.13427734375,-0.160888671875,-10.5625,29.625,8.9375,35.06640625
2727,0.875732421875,0.13427734375,-0.160888671875,-10.5625,29.625,8.9375,35.06640625
2729,0.87353515625,0.134765625,-0.150634765625,-11.1875,30.3125,9.875,35.06640625
2731,0.87353515625,0.134765625,-0.150634765625,-11.1875,30.3125,9.875,35.06640625
2733,0.873291015625,0.12744140625,-0.135009765625,-10.4375,30.125,9.5625,35.06640625
2736,0.873291015625,0.12744140625,-0.135009765625,-10.4375,30.125,9.5625,35.06640625
2737,0.8740234375,0.12744140625,-0.123046875,-8.5,29.5,7.875,35.06640625
2739,0.8740234375,0.12744140625,-0.123046875,-8.5,29.5,7.875,35.06640625
2741,0.872802734375,0.134765625,-0.1201171875,-6.125,28.625,5.8125,35.06640625
2743,0.872802734375,0.134765625,-0.1201171875,-6.125,28.625,5.8125,35.06640625
2745,0.86962890625,0.14208984375,-0.12744140625,-3.75,27.3125,3.0625,35.06640625
2747,0.86962890625,0.14208984375,-0.12744140625,-3.75,27.3125,3.0625,35.06640625
2749,0.86962890625,0.14208984375,-0.12744140625,-3.75,27.3125,3.0625,35.06640625
2751,0.858642578125,0.14501953125,-0.139404296875,-1.0,25.8125,-0.75,35.06640625
2753,0.858642578125,0.14501953125,-0.139404296875,-1.0,25.8125,-0.75,35.06640625
2755,0.839111328125,0.139892578125,-0.147216796875,1.4375,24.25,-4.625,35.06640625
2757,0.839111328125,0.139892578125,-0.147216796875,1.4375,24.25,-4.625,35.06640625
2759,0.827880859375,0.127197265625,-0.1484375,2.75,23.1875,-8.625,35.06640625
2761,0.827880859375,0.127197265625,-0.1484375,2.75,23.1875,-8.625,35.06640625
2763,0.823974609375,0.1201171875,-0.14990234375,3.75,23.0625,-11.3125,35.06640625
2765,0.823974609375,0.1201171875,-0.14990234375,3.75,23.0625,-11.3125,35.06640625
2768,0.817138671875,0.1220703125,-0.154541015625,4.4375,23.3125,-13.4375,35.06640625
2770,0.817138671875,0.1220703125,-0.154541015625,4.4375,23.3125,-13.4375,35.06640625
2772,0.817138671875,0.1220703125,-0.154541015625,4.4375,23.8125,-15.3125,35.06640625
2774,0.802978515625,0.12841796875,-0.168212890625,4.875,23.8125,-15.3125,35.06640625
2776,0.802978515625,0.12841796875,-0.168212890625,4.875,23.8125,-15.3125,35.06640625
2777,0.787109375,0.135498046875,-0.1748046875,5.125,24.8125,-16.6875,35.06640625
2780,0.787109375,0.135498046875,-0.1748046875,5.125,24.8125,-16.6875,35.06640625
2782,0.787841796875,0.14208984375,-0.1767578125,5.25,26.3125,-17.0,35.06640625
2784,0.787841796875,0.14208984375,-0.1767578125,5.25,26.3125,-17.0,35.06640625
2786,0.80126953125,0.148193359375,-0.178955078125,4.9375,28.9375,-16.8125,35.06640625
2788,0.80126953125,0.148193359375,-0.178955078125,4.9375,28.9375,-16.8125,35.06640625
2790,0.80859375,0.1572265625,-0.17236328125,4.0,31.6875,-15.6875,35.06640625
2792,0.80859375,0.1572265625,-0.17236328125,4.0,31.6875,-15.6875,35.06640625
2793,0.80859375,0.1572265625,-0.17236328125,4.0,31.6875,-15.6875,35.06640625
2795,0.807861328125,0.163330078125,-0.1552734375,3.1875,34.375,-13.75,35.06640625
2798,0.807861328125,0.163330078125,-0.1552734375,3.1875,34.375,-13.75,35.06640625
2799,0.8046875,0.171630859375,-0.147216796875,3.1875,37.25,-11.6875,35.06640625
2802,0.8046875,0.171630859375,-0.147216796875,3.1875,37.25,-11.6875,35.06640625
2804,0.8037109375,0.1787109375,-0.132568359375,3.3125,39.625,-9.9375,35.06640625
2806,0.8037109375,0.1787109375,-0.132568359375,3.3125,39.625,-9.9375,35.06640625
2808,0.814208984375,0.186767578125,-0.11376953125,3.0625,41.5,-8.375,35.06640625
2810,0.814208984375,0.186767578125,-0.11376953125,3.0625,41.5,-8.375,35.06640625
2812,0.814208984375,0.186767578125,-0.11376953125,3.0625,43.0625,-6.625,35.06640625
2813,0.83154296875,0.195556640625,-0.094482421875,3.0625,43.0625,-6.625,35.06640625
2815,0.83154296875,0.195556640625,-0.094482421875,3.0625,43.0625,-6.625,35.06640625
2817,0.8447265625,0.199462890625,-0.076171875,3.125,44.3125,-5.25,35.08203125
2819,0.8447265625,0.199462890625,-0.076171875,3.125,44.3125,-5.25,35.08203125
2821,0.8544921875,0.18994140625,-0.049072265625,3.875,44.9375,-4.4375,35.08203125
2824,0.8544921875,0.18994140625,-0.049072265625,3.875,44.9375,-4.4375,35.08203125
2825,0.864013671875,0.1787109375,-0.022216796875,5.3125,45.3125,-4.1875,35.08203125
2827,0.864013671875,0.1787109375,-0.022216796875,5.3125,45.3125,-4.1875,35.08203125
2829,0.864013671875,0.1787109375,-0.022216796875,5.3125,44.625,-4.75,35.08203125
2832,0.874755859375,0.1630859375,-0.000244140625,7.0,44.625,-4.75,35.08203125
2833,0.874755859375,0.1630859375,-0.000244140625,7.0,44.625,-4.75,35.08203125
2836,0.888671875,0.151123046875,0.0166015625,7.875,42.6875,-6.4375,35.08203125
2839,0.900390625,0.143798828125,0.02783203125,8.0625,39.9375,-8.75,35.08203125
2841,0.900390625,0.143798828125,0.02783203125,8.0625,39.9375,-8.75,35.08203125
2843,0.906494140625,0.1357421875,0.031005859375,8.375,36.9375,-11.8125,35.08203125
2845,0.906494140625,0.1357421875,0.031005859375,8.375,36.9375,-11.8125,35.08203125
2848,0.906005859375,0.126708984375,0.022705078125,8.8125,34.0625,-15.0,35.08203125
2850,0.906005859375,0.126708984375,0.022705078125,8.8125,34.0625,-15.0,35.08203125
2852,0.8994140625,0.118896484375,0.013427734375,9.125,31.5,-18.1875,35.08203125
2854,0.8994140625,0.118896484375,0.013427734375,9.125,31.5,-18.1875,35.08203125
2856,0.897705078125,0.10986328125,0.01806640625,8.25,29.375,-21.0625,35.08203125
2858,0.897705078125,0.10986328125,0.01806640625,8.25,29.375,-21.0625,35.08203125
2860,0.897705078125,0.10986328125,0.01806640625,8.25,29.375,-21.0625,35.08203125
2862,0.91015625,0.1123046875,0.02099609375,6.5,27.5,-23.375,35.08203125
2864,0.91015625,0.1123046875,0.02099609375,6.5,27.5,-23.375,35.08203125
2866,0.918701171875,0.12744140625,0.015380859375,4.8125,26.375,-24.375,35.08203125
2868,0.918701171875,0.12744140625,0.015380859375,4.8125,26.375,-24.375,35.08203125
2870,0.9169921875,0.1494140625,0.01123046875,3.625,26.0625,-24.5625,35.08203125
2873,0.9169921875,0.1494140625,0.01123046875,3.625,26.0625,-24.5625,35.08203125
2875,0.91015625,0.17041015625,0.010498046875,3.625,26.75,-24.5,35.08203125
2877,0.91015625,0.17041015625,0.010498046875,3.625,26.75,-24.5,35.08203125
2879,0.90966796875,0.187744140625,0.01708984375,4.3125,27.4375,-24.25,35.08203125
2881,0.90966796875,0.187744140625,0.01708984375,4.3125,27.4375,-24.25,35.08203125
2883,0.91650390625,0.202392578125,0.02490234375,5.4375,28.1875,-23.75,35.08203125
2884,0.91650390625,0.202392578125,0.02490234375,5.4375,28.1875,-23.75,35.08203125
2886,0.91650390625,0.202392578125,0.02490234375,5.4375,28.1875,-23.75,35.08203125
2888,0.929931640625,0.199951171875,0.0400390625,6.9375,28.875,-23.3125,35.08203125
2890,0.929931640625,0.199951171875,0.0400390625,6.9375,28.875,-23.3125,35.08203125
2892,0.943115234375,0.192138671875,0.060302734375,8.625,29.625,-22.625,35.08203125
2895,0.943115234375,0.192138671875,0.060302734375,8.625,29.625,-22.625,35.08203125
2896,0.950439453125,0.183837890625,0.074951171875,9.625,30.875,-21.75,35.08203125
2898,0.950439453125,0.183837890625,0.074951171875,9.625,30.875,-21.75,35.08203125
2900,0.954345703125,0.175048828125,0.08544921875,9.875,31.875,-20.5625,35.08203125
2902,0.954345703125,0.175048828125,0.08544921875,9.875,31.875,-20.5625,35.08203125
2904,0.954345703125,0.175048828125,0.08544921875,9.875,31.875,-20.5625,35.08203125
2907,0.959228515625,0.17138671875,0.094970703125,9.4375,32.125,-19.625,35.08203125
2909,0.96533203125,0.173828125,0.107177734375,8.5625,32.25,-19.375,35.08203125
2911,0.96533203125,0.173828125,0.107177734375,8.5625,32.25,-19.375,35.08203125
2914,0.96533203125,0.176513671875,0.123779296875,8.125,31.875,-20.125,35.08203125
2916,0.970458984375,0.176513671875,0.123779296875,8.125,31.875,-20.125,35.08203125
2918,0.970458984375,0.176513671875,0.186279296875,8.25,31.1875,-21.125,35.08203125
2920,0.976806640625,0.17724609375,0.1474609375,8.25,31.1875,-21.125,35.08203125
2922,0.976806640625,0.17724609375,0.1474609375,8.25,31.1875,-21.125,35.08203125
2923,0.990966796875,0.17626953125,0.173828125,8.75,29.625,-22.4375,35.08203125
2925,0.990966796875,0.17626953125,0.173828125,8.75,29.625,-22.4375,35.08203125
2928,1.008544921875,0.1796875,0.1943359375,9.0,27.1875,-24.125,35.08203125
2929,1.008544921875,0.1796875,0.1943359375,9.0,27.1875,-24.125,35.08203125
2931,1.0224609375,0.186279296875,0.20654296875,8.9375,24.5625,-25.4375,35.08203125
2933,1.0224609375,0.186279296875,0.20654296875,8.9375,24.5625,-25.4375,35.08203125
2935,1.0224609375,0.186279296875,0.20654296875,8.9375,24.5625,-25.4375,35.08203125
2937,1.031494140625,0.187255859375,0.21484375,9.125,21.75,-26.625,35.08203125
2940,1.031494140625,0.187255859375,0.21484375,9.125,21.75,-26.625,35.08203125
2942,1.040283203125,0.181396484375,0.220947265625,9.6875,19.1875,-27.5,35.08203125
2945,1.051025390625,0.17529296875,0.225341796875,10.25,16.75,-28.1875,35.08203125
2947,1.051025390625,0.17529296875,0.225341796875,10.25,16.75,-28.1875,35.08203125
2949,1.051025390625,0.17529296875,0.225341796875,10.3125,14.875,-28.3125,35.08203125
2951,1.06201171875,0.170654296875,0.23046875,10.3125,14.875,-28.3125,35.08203125
2953,1.06201171875,0.170654296875,0.23046875,10.3125,14.875,-28.3125,35.08203125
2955,1.076171875,0.166015625,0.235595703125,10.125,13.4375,-27.8125,35.08203125
2957,1.076171875,0.166015625,0.235595703125,10.125,13.4375,-27.8125,35.08203125
2959,1.0947265625,0.159423828125,0.241943359375,9.875,12.1875,-26.875,35.078125
2960,1.0947265625,0.159423828125,0.241943359375,9.875,12.1875,-26.875,35.078125
2963,1.1083984375,0.154541015625,0.248291015625,10.0,10.75,-25.625,35.078125
2965,1.1083984375,0.154541015625,0.248291015625,10.0,10.75,-25.625,35.078125
2967,1.118896484375,0.15185546875,0.255126953125,10.125,8.875,-24.5625,35.078125
2969,1.118896484375,0.15185546875,0.255126953125,10.125,8.875,-24.5625,35.078125
2971,1.118896484375,0.15185546875,0.255126953125,10.0625,6.75,-23.375,35.078125
2973,1.12744140625,0.145751953125,0.257080078125,10.0625,6.75,-23.375,35.078125
2975,1.12744140625,0.145751953125,0.257080078125,10.0625,6.75,-23.375,35.078125
2977,1.130859375,0.136474609375,0.2578125,9.625,4.3125,-21.5625,35.078125
2979,1.130859375,0.136474609375,0.2578125,9.625,4.3125,-21.5625,35.078125
2981,1.13525390625,0.127685546875,0.263671875,8.125,2.4375,-19.625,35.078125
2983,1.13525390625,0.127685546875,0.263671875,8.125,2.4375,-19.625,35.078125
2985,1.1435546875,0.122314453125,0.2734375,6.25,0.75,-17.0625,35.078125
2987,1.1435546875,0.122314453125,0.2734375,6.25,0.75,-17.0625,35.078125
2989,1.15380859375,0.117431640625,0.284912109375,4.0,-1.0,-14.1875,35.078125
2991,1.15380859375,0.117431640625,0.284912109375,4.0,-1.0,-14.1875,35.078125
2993,1.15380859375,0.117431640625,0.284912109375,4.0,-3.1875,-11.0,35.078125
2995,1.1650390625,0.116943359375,0.29150390625,1.625,-3.1875,-11.0,35.078125
2997,1.1650390625,0.116943359375,0.29150390625,1.625,-3.1875,-11.0,35.078125
2999,1.17529296875,0.12158203125,0.29248046875,-0.5,-5.375,-8.25,35.078125
3001,1.17529296875,0.12158203125,0.29248046875,-0.5,-5.375,-8.25,35.078125
