time,acc_x,acc_y,acc_z,gyro_x,gyro_y,gyro_z
401,0.859130859375,-0.02490234375,-0.3056640625,-4.1875,-15.9375,-5.625
403,0.88720703125,-0.02978515625,-0.272705078125,-3.625,-15.3125,-7.8125
406,0.88720703125,-0.02978515625,-0.272705078125,-3.625,-15.3125,-7.8125
408,0.9033203125,-0.020751953125,-0.25146484375,-2.1875,-16.0625,-11.4375
409,0.9033203125,-0.020751953125,-0.25146484375,-2.1875,-16.0625,-11.4375
411,0.90771484375,-0.010498046875,-0.2294921875,-0.125,-17.9375,-15.75
413,0.90771484375,-0.010498046875,-0.2294921875,-0.125,-17.9375,-15.75
415,0.90771484375,-0.010498046875,-0.20849609375,2.25,-20.0625,-20.3125
417,0.91748046875,-0.010009765625,-0.20849609375,2.25,-20.0625,-20.3125
419,0.91748046875,-0.010009765625,-0.20849609375,2.25,-20.0625,-20.3125
421,0.9306640625,-0.00537109375,-0.199462890625,4.8125,-22.6875,-23.75
423,0.9306640625,-0.00537109375,-0.199462890625,4.8125,-22.6875,-23.75
425,0.931396484375,0.0048828125,-0.209228515625,6.9375,-24.8125,-25.9375
427,0.931396484375,0.0048828125,-0.209228515625,6.9375,-24.8125,-25.9375
429,0.916015625,0.010986328125,-0.22509765625,7.9375,-25.9375,-26.9375
431,0.916015625,0.010986328125,-0.22509765625,7.9375,-25.9375,-26.9375
433,0.916015625,0.010986328125,-0.22509765625,7.25,-25.8125,-26.25
435,0.8955078125,0.011474609375,-0.2412109375,7.25,-25.8125,-26.25
437,0.8955078125,0.011474609375,-0.2412109375,7.25,-25.8125,-26.25
439,0.8828125,0.020751953125,-0.24853515625,5,-24.5,-23.8125
441,0.8828125,0.020751953125,-0.24853515625,5,-24.5,-23.8125
443,0.87939453125,0.037841796875,-0.2509765625,1.25,-22.5625,-19.4375
444,0.87939453125,0.037841796875,-0.2509765625,1.25,-22.5625,-19.4375
446,0.87939453125,0.0537109375,-0.25146484375,-2.6875,-20.4375,-13.6875
449,0.877685546875,0.0537109375,-0.25146484375,-2.6875,-20.4375,-13.6875
451,0.881103515625,0.06298828125,-0.252685546875,-6,-18.1875,-7.5
453,0.881103515625,0.06298828125,-0.252685546875,-6,-18.1875,-7.5
455,0.881103515625,0.06298828125,-0.252685546875,-8.4375,-15.6875,-1.6875
457,0.88671875,0.069580078125,-0.252685546875,-8.4375,-15.6875,-1.6875
459,0.88671875,0.069580078125,-0.252685546875,-8.4375,-15.6875,-1.6875
461,0.88525390625,0.07177734375,-0.254638671875,-9.5625,-12.625,3.5
463,0.88525390625,0.07177734375,-0.254638671875,-9.5625,-12.625,3.5
465,0.875,0.066650390625,-0.26220703125,-9.5625,-9.3125,7.75
467,0.875,0.066650390625,-0.26220703125,-9.5625,-9.3125,7.75
469,0.86328125,0.048828125,-0.272216796875,-8.5,-6.0625,10.25
471,0.86328125,0.048828125,-0.272216796875,-8.5,-6.0625,10.25
473,0.850341796875,0.02490234375,-0.265380859375,-8.1875,-3,11.375
475,0.850341796875,0.02490234375,-0.265380859375,-8.1875,-3,11.375
477,0.850341796875,0.02490234375,-0.265380859375,-8.1875,-3,11.375
479,0.850830078125,0.00146484375,-0.252197265625,-9.375,-0.5625,11.875
481,0.850830078125,0.00146484375,-0.252197265625,-9.375,-0.5625,11.875
483,0.855712890625,-0.0087890625,-0.248779296875,-10.875,1.8125,12.1875
485,0.855712890625,-0.0087890625,-0.248779296875,-10.875,1.8125,12.1875
487,0.849609375,-0.003662109375,-0.236572265625,-10.8125,3.9375,11.75
488,0.849609375,-0.003662109375,-0.236572265625,-10.8125,3.9375,11.75
490,0.849609375,-0.003662109375,-0.236572265625,-10.8125,5.4375,9.6875
492,0.83642578125,-0.0029296875,-0.22412109375,-9.0625,5.4375,9.6875
495,0.83642578125,-0.0029296875,-0.22412109375,-9.0625,5.4375,9.6875
497,0.83056640625,-0.01708984375,-0.19873046875,-7.1875,6.3125,5.875
499,0.83056640625,-0.01708984375,-0.19873046875,-7.1875,6.3125,5.875
501,0.84619140625,-0.0361328125,-0.15673828125,-6.625,5.9375,1.6875
502,0.84619140625,-0.0361328125,-0.15673828125,-6.625,5.9375,1.6875
504,0.876220703125,-0.031005859375,-0.128173828125,-7,4.125,-1.875
506,0.876220703125,-0.031005859375,-0.128173828125,-7,4.125,-1.875
508,0.876220703125,-0.031005859375,-0.128173828125,-7,4.125,-4.9375
510,0.89453125,0.000732421875,-0.1201171875,-7.1875,1.625,-4.9375
512,0.89453125,0.000732421875,-0.1201171875,-7.1875,1.625,-4.9375
514,0.895751953125,0.03369140625,-0.117431640625,-6.4375,-1.375,-7.5
516,0.895751953125,0.03369140625,-0.117431640625,-6.4375,-1.375,-7.5
518,0.89208984375,0.056396484375,-0.117919921875,-4.875,-3.8125,-9.75
520,0.89208984375,0.056396484375,-0.117919921875,-4.875,-3.8125,-9.75
522,0.896728515625,0.069091796875,-0.12353515625,-2.375,-5.8125,-11.25
524,0.896728515625,0.069091796875,-0.12353515625,-2.375,-5.8125,-11.25
526,0.896728515625,0.069091796875,-0.12353515625,-2.375,-5.8125,-11.25
528,0.90283203125,0.07763671875,-0.133056640625,-0.75,-6.625,-10.875
530,0.90283203125,0.07763671875,-0.133056640625,-0.75,-6.625,-10.875
531,0.902099609375,0.087890625,-0.140380859375,-1,-5.9375,-8.5
533,0.902099609375,0.087890625,-0.140380859375,-1,-5.9375,-8.5
535,0.900390625,0.096923828125,-0.144287109375,-2.875,-4.4375,-3.9375
538,0.900390625,0.096923828125,-0.144287109375,-2.875,-4.4375,-3.9375
540,0.89599609375,0.103515625,-0.1484375,-5.4375,-2.5,2.1875
541,0.89599609375,0.103515625,-0.1484375,-5.4375,-2.5,2.1875
543,0.89599609375,0.103515625,-0.1484375,-5.4375,-2.5,2.1875
545,0.889892578125,0.104736328125,-0.15283203125,-7.4375,-0.0625,8.6875
547,0.889892578125,0.104736328125,-0.15283203125,-7.4375,-0.0625,8.6875
549,0.878662109375,0.09765625,-0.157958984375,-8.5,2,14.375
551,0.878662109375,0.09765625,-0.157958984375,-8.5,2,14.375
553,0.874755859375,0.073974609375,-0.16015625,-8.875,3.5625,18.5625
555,0.874755859375,0.073974609375,-0.16015625,-8.875,3.5625,18.5625
557,0.8779296875,0.0400390625,-0.163330078125,-8.375,4.8125,20.5625
559,0.8779296875,0.0400390625,-0.163330078125,-8.375,4.8125,20.5625
561,0.8779296875,0.00439453125,-0.160888671875,-7.5625,6.6875,20.625
563,0.881591796875,0.00439453125,-0.160888671875,-7.5625,6.6875,20.625
565,0.881591796875,0.00439453125,-0.160888671875,-7.5625,6.6875,20.625
567,0.87646484375,-0.03173828125,-0.158203125,-7.6875,8.6875,19.0625
569,0.87646484375,-0.03173828125,-0.158203125,-7.6875,8.6875,19.0625
571,0.8759765625,-0.062255859375,-0.14892578125,-7.75,10.4375,15.875
573,0.8759765625,-0.062255859375,-0.14892578125,-7.75,10.4375,15.875
575,0.888671875,-0.079345703125,-0.130126953125,-7.9375,11.6875,11.5625
577,0.888671875,-0.079345703125,-0.130126953125,-7.9375,11.6875,11.5625
579,0.888671875,-0.079345703125,-0.108154296875,-8.8125,12.0625,6.875
581,0.909423828125,-0.0703125,-0.108154296875,-8.8125,12.0625,6.875
583,0.909423828125,-0.0703125,-0.108154296875,-8.8125,12.0625,6.875
585,0.9248046875,-0.035400390625,-0.101806640625,-9,11.25,2.9375
587,0.9248046875,-0.035400390625,-0.101806640625,-9,11.25,2.9375
589,0.923828125,-0.001708984375,-0.116943359375,-7.625,9.875,-0.25
591,0.923828125,-0.001708984375,-0.116943359375,-7.625,9.875,-0.25
593,0.90625,0.013671875,-0.128662109375,-5.5625,8.25,-3.75
595,0.90625,0.013671875,-0.128662109375,-5.5625,8.25,-3.75
597,0.90625,0.013671875,-0.128662109375,-5.5625,8.25,-6.8125
599,0.898681640625,0.015869140625,-0.118896484375,-4.375,6.4375,-6.8125
601,0.898681640625,0.015869140625,-0.118896484375,-4.375,6.4375,-6.8125
603,0.912109375,0.019775390625,-0.101318359375,-4.9375,3.875,-8.5
604,0.912109375,0.019775390625,-0.101318359375,-4.9375,3.875,-8.5
607,0.93115234375,0.032958984375,-0.100830078125,-5.75,1.25,-8.5
609,0.93115234375,0.032958984375,-0.100830078125,-5.75,1.25,-8.5
611,0.933837890625,0.04443359375,-0.11328125,-5.875,-0.25,-7.9375
613,0.933837890625,0.04443359375,-0.11328125,-5.875,-0.25,-7.9375
615,0.933837890625,0.03857421875,-0.127197265625,-4.4375,-0.5,-8.3125
616,0.918701171875,0.03857421875,-0.127197265625,-4.4375,-0.5,-8.3125
618,0.918701171875,0.03857421875,-0.127197265625,-4.4375,-0.5,-8.3125
620,0.899169921875,0.01953125,-0.12939453125,-2,-0.5,-10.9375
622,0.899169921875,0.01953125,-0.12939453125,-2,-0.5,-10.9375
624,0.892333984375,-0.00927734375,-0.128662109375,0.4375,-1.125,-15.3125
626,0.892333984375,-0.00927734375,-0.128662109375,0.4375,-1.125,-15.3125
628,0.88916015625,-0.02685546875,-0.127197265625,2.875,-1.3125,-21
630,0.88916015625,-0.02685546875,-0.127197265625,2.875,-1.3125,-21
632,0.88916015625,-0.02685546875,-0.127197265625,2.875,-1.3125,-27.75
634,0.888916015625,-0.03515625,-0.119384765625,5.1875,-0.875,-27.75
636,0.888916015625,-0.03515625,-0.119384765625,5.1875,-0.875,-27.75
638,0.8896484375,-0.040771484375,-0.107666015625,7.5625,-0.4375,-35
640,0.8896484375,-0.040771484375,-0.107666015625,7.5625,-0.4375,-35
642,0.89111328125,-0.036865234375,-0.094482421875,10.1875,-1.25,-42.0625
643,0.89111328125,-0.036865234375,-0.094482421875,10.1875,-1.25,-42.0625
645,0.89111328125,-0.036865234375,-0.094482421875,10.1875,-1.25,-48.375
647,0.89306640625,-0.02490234375,-0.093017578125,12.1875,-3,-48.375
650,0.88916015625,-0.00830078125,-0.103759765625,13.4375,-5.375,-53
652,0.88916015625,-0.00830078125,-0.103759765625,13.4375,-5.375,-53
654,0.88916015625,-0.00830078125,-0.103759765625,13.4375,-5.375,-53
656,0.883544921875,0.0048828125,-0.11376953125,13.3125,-7.5,-55.3125
658,0.883544921875,0.0048828125,-0.11376953125,13.3125,-7.5,-55.3125
660,0.88232421875,0.02783203125,-0.126708984375,11.5625,-8.9375,-55.1875
662,0.88232421875,0.02783203125,-0.126708984375,11.5625,-8.9375,-55.1875
664,0.88037109375,0.055419921875,-0.14453125,8.25,-10.0625,-52.1875
665,0.88037109375,0.055419921875,-0.14453125,8.25,-10.0625,-52.1875
667,0.88037109375,0.055419921875,-0.14453125,8.25,-10.0625,-52.1875
669,0.8779296875,0.07373046875,-0.164306640625,4.25,-11.0625,-46.875
672,0.8779296875,0.07373046875,-0.164306640625,4.25,-11.0625,-46.875
674,0.881103515625,0.087158203125,-0.17626953125,0.625,-11.625,-40.5625
676,0.881103515625,0.087158203125,-0.17626953125,0.625,-11.625,-40.5625
677,0.899169921875,0.0986328125,-0.177734375,-3.1875,-12.5625,-34.1875
679,0.899169921875,0.0986328125,-0.177734375,-3.1875,-12.5625,-34.1875
681,0.917724609375,0.10595703125,-0.17578125,-6.75,-13.25,-28
683,0.917724609375,0.10595703125,-0.17578125,-6.75,-13.25,-28
685,0.917724609375,0.10595703125,-0.17578125,-6.75,-13.25,-28
687,0.91845703125,0.112548828125,-0.182373046875,-10.25,-13.3125,-21.5625
689,0.91845703125,0.112548828125,-0.182373046875,-10.25,-13.3125,-21.5625
691,0.90478515625,0.114013671875,-0.197998046875,-13.1875,-12.5,-15.875
693,0.90478515625,0.114013671875,-0.197998046875,-13.1875,-12.5,-15.875
695,0.88720703125,0.105712890625,-0.21875,-15.0625,-10.6875,-11.1875
697,0.88720703125,0.105712890625,-0.21875,-15.0625,-10.6875,-11.1875
699,0.873046875,0.09326171875,-0.236572265625,-15.875,-7.625,-7.6875
701,0.873046875,0.09326171875,-0.236572265625,-15.875,-7.625,-7.6875
703,0.873046875,0.09326171875,-0.236572265625,-15.875,-7.625,-7.6875
705,0.873046875,0.08251953125,-0.24462890625,-15.875,-3.5,-5.9375
707,0.873046875,0.08251953125,-0.24462890625,-15.875,-3.5,-5.9375
709,0.87744140625,0.08154296875,-0.242919921875,-15.5,0.25,-5.75
710,0.87744140625,0.08154296875,-0.242919921875,-15.5,0.25,-5.75
712,0.880859375,0.087890625,-0.239013671875,-14.5,3.3125,-7.125
715,0.880859375,0.087890625,-0.239013671875,-14.5,3.3125,-7.125
717,0.8857421875,0.093017578125,-0.230712890625,-12.6875,5.875,-8.9375
719,0.8857421875,0.093017578125,-0.230712890625,-12.6875,5.875,-8.9375
721,0.8857421875,0.093017578125,-0.230712890625,-12.6875,5.875,-8.9375
722,0.900390625,0.0908203125,-0.208251953125,-10.4375,7.8125,-11.25
724,0.900390625,0.0908203125,-0.208251953125,-10.4375,7.8125,-11.25
726,0.9267578125,0.08447265625,-0.177490234375,-8.5625,9.1875,-13.5
728,0.9267578125,0.08447265625,-0.177490234375,-8.5625,9.1875,-13.5
730,0.96533203125,0.0830078125,-0.147705078125,-7.875,9.375,-14.5
732,0.96533203125,0.0830078125,-0.147705078125,-7.875,9.375,-14.5
734,0.96533203125,0.0830078125,-0.147705078125,-7.875,9.375,-14.5
736,1.000732421875,0.09228515625,-0.131591796875,-8.1875,8.8125,-14.5625
738,1.000732421875,0.09228515625,-0.131591796875,-8.1875,8.8125,-14.5625
740,1.015380859375,0.104736328125,-0.12841796875,-8.5,7.375,-14.25
742,1.015380859375,0.104736328125,-0.12841796875,-8.5,7.375,-14.25
744,1.012939453125,0.11328125,-0.131591796875,-8.25,5.8125,-14.125
746,1.012939453125,0.11328125,-0.131591796875,-8.25,5.8125,-14.125
748,1.006591796875,0.117431640625,-0.13525390625,-7.6875,4.6875,-14
750,1.006591796875,0.117431640625,-0.13525390625,-7.6875,4.6875,-14
752,1.006591796875,0.117431640625,-0.13525390625,-7.6875,4.6875,-14
753,1.01220703125,0.121337890625,-0.134033203125,-6.875,4.0625,-13.4375
755,1.01220703125,0.121337890625,-0.134033203125,-6.875,4.0625,-13.4375
757,1.02685546875,0.129150390625,-0.129150390625,-6.3125,3.5625,-12.25
760,1.02685546875,0.129150390625,-0.129150390625,-6.3125,3.5625,-12.25
762,1.03271484375,0.13818359375,-0.13037109375,-6.1875,3.1875,-10.25
764,1.03271484375,0.13818359375,-0.13037109375,-6.1875,3.1875,-10.25
765,1.022705078125,0.146728515625,-0.142578125,-6.4375,3,-7.9375
767,1.022705078125,0.146728515625,-0.142578125,-6.4375,3,-7.9375
769,1.022705078125,0.146728515625,-0.142578125,-6.4375,3,-7.9375
771,1.001708984375,0.142822265625,-0.156494140625,-6.75,2.6875,-5.5625
773,1.001708984375,0.142822265625,-0.156494140625,-6.75,2.6875,-5.5625
775,0.989501953125,0.1240234375,-0.1689453125,-7.0625,2.8125,-2.9375
777,0.989501953125,0.1240234375,-0.1689453125,-7.0625,2.8125,-2.9375
779,0.990478515625,0.103515625,-0.171142578125,-7.875,4.0625,-0.625
781,0.990478515625,0.103515625,-0.171142578125,-7.875,4.0625,-0.625
784,1.001953125,0.0869140625,-0.156982421875,-9.375,5.375,1.8125
786,1.001953125,0.0869140625,-0.156982421875,-9.375,5.375,1.8125
788,1.008544921875,0.084228515625,-0.14990234375,-10.6875,5.5625,3.3125
789,1.008544921875,0.084228515625,-0.14990234375,-10.6875,5.5625,3.3125
791,1.008544921875,0.084228515625,-0.14990234375,-10.6875,5.5625,3.3125
793,1.001953125,0.0830078125,-0.156494140625,-10.875,4.8125,3.4375
795,1.001953125,0.0830078125,-0.156494140625,-10.875,4.8125,3.4375
797,0.98779296875,0.07763671875,-0.17138671875,-10.3125,3.5,1.8125
799,0.98779296875,0.07763671875,-0.17138671875,-10.3125,3.5,1.8125
801,0.9775390625,0.069580078125,-0.181640625,-8.75,2.625,-0.375
803,0.9775390625,0.069580078125,-0.181640625,-8.75,2.625,-0.375
805,0.980224609375,0.060302734375,-0.1884765625,-7.625,2.125,-2.6875
807,0.980224609375,0.060302734375,-0.1884765625,-7.625,2.125,-2.6875
809,0.980224609375,0.060302734375,-0.1884765625,-7.625,2.125,-2.6875
811,0.982666015625,0.0595703125,-0.1943359375,-7.25,2.1875,-4.4375
813,0.982666015625,0.0595703125,-0.1943359375,-7.25,2.1875,-4.4375
815,0.972900390625,0.0693359375,-0.201904296875,-7.1875,2.625,-5.625
817,0.972900390625,0.0693359375,-0.201904296875,-7.1875,2.625,-5.625
819,0.95751953125,0.077392578125,-0.205322265625,-7.0625,2.8125,-6.875
821,0.95751953125,0.077392578125,-0.205322265625,-7.0625,2.8125,-6.875
823,0.95751953125,0.077392578125,-0.205322265625,-7.25,2.5625,-7.875
825,0.945556640625,0.07568359375,-0.20556640625,-7.25,2.5625,-7.875
827,0.945556640625,0.07568359375,-0.20556640625,-7.6875,2.125,-8.8125
829,0.943359375,0.075439453125,-0.19189453125,-7.6875,2.125,-8.8125
831,0.943359375,0.075439453125,-0.19189453125,-7.6875,2.125,-8.8125
833,0.943359375,0.091796875,-0.181396484375,-8.875,1.375,-9
835,0.943359375,0.091796875,-0.181396484375,-8.875,1.375,-9
837,0.93994140625,0.1142578125,-0.18798828125,-10,0.75,-8.5625
839,0.93994140625,0.1142578125,-0.18798828125,-10,0.75,-8.5625
841,0.92724609375,0.130126953125,-0.202880859375,-10.625,0.0625,-7.8125
843,0.92724609375,0.130126953125,-0.202880859375,-10.625,0.0625,-7.8125
844,0.92724609375,0.130126953125,-0.202880859375,-10.625,0.0625,-7.8125
846,0.908935546875,0.1376953125,-0.215576171875,-10.8125,-0.375,-7.125
849,0.908935546875,0.1376953125,-0.215576171875,-10.8125,-0.375,-7.125
851,0.89501953125,0.1328125,-0.220703125,-10.8125,-0.6875,-6.625
853,0.89501953125,0.1328125,-0.220703125,-10.8125,-0.6875,-6.625
855,0.889404296875,0.1240234375,-0.22509765625,-10.9375,-0.875,-6.1875
857,0.889404296875,0.1240234375,-0.22509765625,-10.9375,-0.875,-6.1875
859,0.888427734375,0.1181640625,-0.228515625,-11.6875,-0.5,-5.625
861,0.888427734375,0.1181640625,-0.228515625,-11.6875,-0.5,-5.625
863,0.8818359375,0.1181640625,-0.230224609375,-12.5625,0.5,-5.3125
865,0.8818359375,0.1181640625,-0.230224609375,-12.5625,0.5,-5.3125
867,0.8193359375,0.125,-0.220703125,-12.75,1.6875,-5.625
869,0.8740234375,0.125,-0.220703125,-12.75,1.6875,-5.625
871,0.8740234375,0.125,-0.220703125,-12.75,1.6875,-5.625
873,0.8759765625,0.130615234375,-0.2041015625,-11.6875,2.0625,-7.125
875,0.8759765625,0.130615234375,-0.2041015625,-11.6875,2.0625,-7.125
877,0.884521484375,0.133056640625,-0.193603515625,-9.75,1.375,-9.5
879,0.884521484375,0.133056640625,-0.193603515625,-9.75,1.375,-9.5
881,0.888916015625,0.12890625,-0.189697265625,-7.625,0.375,-12.375
883,0.888916015625,0.12890625,-0.189697265625,-7.625,0.375,-12.375
885,0.880615234375,0.1201171875,-0.196533203125,-6.4375,-0.4375,-15.125
887,0.880615234375,0.1201171875,-0.196533203125,-6.4375,-0.4375,-15.125
889,0.880615234375,0.1201171875,-0.196533203125,-6.4375,-0.4375,-15.125
891,0.86181640625,0.10888671875,-0.198486328125,-6.5625,-0.375,-16.875
892,0.86181640625,0.10888671875,-0.198486328125,-6.5625,-0.375,-16.875
894,0.84619140625,0.103271484375,-0.180419921875,-7.625,0.9375,-17.5625
897,0.84619140625,0.103271484375,-0.180419921875,-7.625,0.9375,-17.5625
899,0.849609375,0.107177734375,-0.168212890625,-8.4375,2.4375,-18
901,0.849609375,0.107177734375,-0.168212890625,-8.4375,2.4375,-18
903,0.859375,0.12841796875,-0.172607421875,-8.9375,3.625,-18.8125
904,0.859375,0.12841796875,-0.172607421875,-8.9375,3.625,-18.8125
906,0.859375,0.12841796875,-0.172607421875,-8.9375,3.625,-18.8125
908,0.85546875,0.155029296875,-0.1806640625,-8.9375,4.625,-20
910,0.85546875,0.155029296875,-0.1806640625,-8.9375,4.625,-20
912,0.846923828125,0.17236328125,-0.173583984375,-7.9375,5.4375,-21.0625
914,0.846923828125,0.17236328125,-0.173583984375,-7.9375,5.4375,-21.0625
916,0.8515625,0.183837890625,-0.15380859375,-6.4375,5.75,-21.625
918,0.8515625,0.183837890625,-0.15380859375,-6.4375,5.75,-21.625
920,0.8515625,0.20361328125,-0.146728515625,-5.1875,5.625,-21.8125
922,0.86279296875,0.20361328125,-0.146728515625,-5.1875,5.625,-21.8125
924,0.86279296875,0.20361328125,-0.146728515625,-5.1875,5.625,-21.8125
926,0.863037109375,0.22802734375,-0.1533203125,-4.625,5.3125,-21.0625
928,0.863037109375,0.22802734375,-0.1533203125,-4.625,5.3125,-21.0625
930,0.839111328125,0.2490234375,-0.17431640625,-4.4375,5.25,-19.6875
932,0.839111328125,0.2490234375,-0.17431640625,-4.4375,5.25,-19.6875
934,0.776611328125,0.26220703125,-0.202880859375,-4.5625,5.8125,-16.75
935,0.798583984375,0.26220703125,-0.202880859375,-4.5625,5.8125,-16.75
937,0.798583984375,0.26220703125,-0.202880859375,-4.5625,5.8125,-16.75
939,0.762939453125,0.2646484375,-0.21923828125,-5.5625,7.5,-11.875
942,0.762939453125,0.2646484375,-0.21923828125,-5.5625,7.5,-11.875
944,0.7470703125,0.25341796875,-0.22216796875,-7.1875,10.375,-6.3125
946,0.7470703125,0.25341796875,-0.22216796875,-7.1875,10.375,-6.3125
947,0.748046875,0.23291015625,-0.219970703125,-8.9375,14.375,-0.125
949,0.748046875,0.23291015625,-0.219970703125,-8.9375,14.375,-0.125
951,0.742431640625,0.21435546875,-0.21484375,-10.625,18.4375,5.4375
953,0.742431640625,0.21435546875,-0.21484375,-10.625,18.4375,5.4375
955,0.742431640625,0.21435546875,-0.21484375,-10.625,18.4375,5.4375
957,0.717041015625,0.1953125,-0.205078125,-12.5625,21.5,10.75
959,0.717041015625,0.1953125,-0.205078125,-12.5625,21.5,10.75
961,0.68603515625,0.177490234375,-0.212646484375,-14.9375,23.375,15.375
963,0.68603515625,0.177490234375,-0.212646484375,-14.9375,23.375,15.375
965,0.675048828125,0.1416015625,-0.22265625,-18.3125,25.875,18.5
967,0.675048828125,0.1416015625,-0.22265625,-18.3125,25.875,18.5
969,0.6953125,0.08984375,-0.20458984375,-21.5625,29.5625,19
971,0.6953125,0.08984375,-0.20458984375,-21.5625,29.5625,19
973,0.6953125,0.08984375,-0.20458984375,-21.5625,29.5625,19
975,0.739990234375,0.049560546875,-0.17236328125,-23.125,33.375,15.5
977,0.739990234375,0.049560546875,-0.17236328125,-23.125,33.375,15.5
979,0.7978515625,0.039794921875,-0.139404296875,-22.125,36.375,7.6875
980,0.7978515625,0.039794921875,-0.139404296875,-22.125,36.375,7.6875
982,0.84130859375,0.060791015625,-0.111083984375,-18,38.0625,-4.75
984,0.84130859375,0.060791015625,-0.111083984375,-18,38.0625,-4.75
986,0.84130859375,0.060791015625,-0.111083984375,-18,38.0625,-4.75
989,0.877197265625,0.07861328125,-0.09228515625,-11.75,38.8125,-18.375
991,0.877197265625,0.07861328125,-0.09228515625,-11.75,38.8125,-18.375
992,0.93603515625,0.076904296875,-0.072509765625,-5.125,38.75,-31
994,0.93603515625,0.076904296875,-0.072509765625,-5.125,38.75,-31
996,1.013916015625,0.066162109375,-0.051025390625,-0.375,38.375,-41.0625
998,1.013916015625,0.066162109375,-0.051025390625,-0.375,38.375,-41.0625
1000,1.07275390625,0.065185546875,-0.037353515625,0.625,38.25,-47.4375
1002,1.07275390625,0.065185546875,-0.037353515625,0.625,38.25,-47.4375
1004,1.07275390625,0.065185546875,-0.037353515625,0.625,38.25,-47.4375
1006,1.10986328125,0.083984375,-0.020751953125,-1.1875,38.875,-49.5
1008,1.10986328125,0.083984375,-0.020751953125,-1.1875,38.875,-49.5
1010,1.136474609375,0.112060546875,-0.015625,-2.875,40.5,-47.375
1012,1.136474609375,0.112060546875,-0.015625,-2.875,40.5,-47.375
1014,1.1640625,0.1298828125,-0.02734375,-4.5,41.6875,-42.5
1016,1.1640625,0.1298828125,-0.02734375,-4.5,41.6875,-42.5
1017,1.1640625,0.1298828125,-0.02734375,-4.5,41.6875,-35.5625
1019,1.204833984375,0.133544921875,-0.03271484375,-7,41.8125,-35.5625
1021,1.204833984375,0.133544921875,-0.03271484375,-7,41.8125,-35.5625
1023,1.251708984375,0.137451171875,-0.020263671875,-10.875,41.4375,-27.625
1025,1.251708984375,0.137451171875,-0.020263671875,-10.875,41.4375,-27.625
1027,1.284912109375,0.150634765625,-0.001220703125,-14.5,40.8125,-20.0625
1029,1.284912109375,0.150634765625,-0.001220703125,-14.5,40.8125,-20.0625
1031,1.284912109375,0.150634765625,0.061279296875,-15.4375,40.9375,-13.5
1033,1.302001953125,0.18212890625,0.01123046875,-15.4375,40.9375,-13.5
1035,1.302001953125,0.18212890625,0.01123046875,-15.4375,40.9375,-7.75
1037,1.30322265625,0.222900390625,0.05419921875,-15.3125,38.3125,-7.75
1039,1.30322265625,0.222900390625,0.05419921875,-15.3125,38.3125,-7.75
1041,1.276123046875,0.23486328125,0.05029296875,-13.25,32.8125,-3.5625
1043,1.276123046875,0.23486328125,0.05029296875,-13.25,32.8125,-3.5625
1045,1.281005859375,0.215087890625,0.0283203125,-10,28.125,-0.125
1047,1.281005859375,0.215087890625,0.0283203125,-10,28.125,-0.125
1049,1.281005859375,0.215087890625,0.0283203125,-8.1875,24.25,3.1875
1051,1.2958984375,0.18701171875,0.017333984375,-8.1875,24.25,3.1875
1053,1.2958984375,0.18701171875,0.0322265625,-8.625,21.625,6.1875
1056,1.2919921875,0.17333984375,0.0322265625,-8.625,21.625,6.1875
1058,1.2919921875,0.17333984375,0.04833984375,-9.375,19,9.0625
1059,1.265380859375,0.172607421875,0.04833984375,-9.375,19,9.0625
1061,1.265380859375,0.172607421875,0.04833984375,-9.375,19,9.0625
1063,1.220703125,0.16455078125,0.039306640625,-8.125,15.125,10.875
1065,1.220703125,0.16455078125,0.039306640625,-8.125,15.125,10.875
1067,1.170166015625,0.136962890625,0.008056640625,-5.75,10.5625,10.625
1069,1.170166015625,0.136962890625,0.008056640625,-5.75,10.5625,10.625
1071,1.12451171875,0.09326171875,-0.02294921875,-4.1875,6.375,8.875
1073,1.12451171875,0.09326171875,-0.02294921875,-4.1875,6.375,8.875
1075,1.12451171875,0.09326171875,-0.02294921875,-4.1875,6.375,8.875
1077,1.0947265625,0.044921875,-0.044921875,-4.75,3.5625,6.875
1079,1.0947265625,0.044921875,-0.044921875,-4.75,3.5625,6.875
1081,1.076416015625,0.010009765625,-0.0615234375,-6.5,2.8125,5.25
1083,1.076416015625,0.010009765625,-0.0615234375,-6.5,2.8125,5.25
1085,1.059814453125,0.005859375,-0.07177734375,-7.625,3.5625,3.1875
1087,1.059814453125,0.005859375,-0.07177734375,-7.625,3.5625,3.1875
1089,1.04248046875,0.01708984375,-0.077880859375,-7,5.0625,-0.25
1091,1.04248046875,0.01708984375,-0.077880859375,-7,5.0625,-0.25
1092,1.04248046875,0.01708984375,-0.077880859375,-7,5.0625,-0.25
1094,1.029541015625,0.02587890625,-0.072265625,-4.6875,5.9375,-5.3125
1096,1.029541015625,0.02587890625,-0.072265625,-4.6875,5.9375,-5.3125
1098,1.025146484375,0.023193359375,-0.0546875,-1.9375,6.125,-11.875
1100,1.025146484375,0.023193359375,-0.0546875,-1.9375,6.125,-11.875
1102,1.02978515625,0.0166015625,-0.032470703125,0.1875,5.625,-18.375
1104,1.02978515625,0.0166015625,-0.032470703125,0.1875,5.625,-18.375
1106,1.02978515625,0.0166015625,-0.032470703125,1.125,4.8125,-23.75
1108,1.031005859375,0.02099609375,-0.007080078125,1.125,4.8125,-23.75
1110,1.031005859375,0.02099609375,-0.007080078125,1.125,4.8125,-23.75
1112,1.018798828125,0.046630859375,0.008056640625,0.9375,3.875,-27.4375
1114,1.018798828125,0.046630859375,0.008056640625,0.9375,3.875,-27.4375
1116,1.0009765625,0.08935546875,0.0078125,0.75,2.4375,-30.1875
1117,1.0009765625,0.08935546875,0.0078125,0.75,2.4375,-30.1875
1119,1.0009765625,0.08935546875,0.0078125,0.75,2.4375,-30.1875
1121,0.982421875,0.133544921875,0.000732421875,1.1875,0.5625,-31.5625
1123,0.982421875,0.133544921875,0.000732421875,1.1875,0.5625,-31.5625
1126,0.968994140625,0.160400390625,-0.001708984375,1.875,-1.5,-31.5
1128,0.968994140625,0.160400390625,-0.001708984375,1.875,-1.5,-31.5
1129,0.961181640625,0.167724609375,-0.00244140625,2.1875,-3.9375,-30.0625
1131,0.961181640625,0.167724609375,-0.00244140625,2.1875,-3.9375,-30.0625
1133,0.961181640625,0.166015625,-0.005126953125,1.3125,-6.4375,-27.4375
1135,0.961181640625,0.166015625,-0.005126953125,1.3125,-6.4375,-27.4375
1137,0.961181640625,0.166015625,-0.005126953125,1.3125,-6.4375,-27.4375
1139,0.965576171875,0.171875,-0.0029296875,-0.8125,-8.375,-24.3125
1141,0.965576171875,0.171875,-0.0029296875,-0.8125,-8.375,-24.3125
1143,0.967529296875,0.196044921875,0.00146484375,-3.3125,-10.4375,-20.9375
1145,0.967529296875,0.196044921875,0.00146484375,-3.3125,-10.4375,-20.9375
1147,0.96484375,0.2275390625,0.000732421875,-4.5625,-12.75,-17.9375
1149,0.96484375,0.2275390625,0.000732421875,-4.5625,-12.75,-17.9375
1151,0.96630859375,0.244140625,-0.00244140625,-3.75,-15.625,-15.9375
1153,0.96630859375,0.244140625,-0.00244140625,-3.75,-15.625,-15.9375
1155,0.972900390625,0.2421875,-0.005126953125,-1.8125,-18.5,-15.375
1157,0.972900390625,0.2421875,-0.005126953125,-1.8125,-18.5,-15.375
1159,0.972900390625,0.2421875,-0.005126953125,-1.8125,-18.5,-15.375
1161,0.980712890625,0.236572265625,-0.00439453125,-0.0625,-21,-14.6875
1163,0.980712890625,0.236572265625,-0.00439453125,-0.0625,-21,-14.6875
1165,0.98876953125,0.23779296875,-0.000732421875,1,-22.875,-13.25
1167,0.98876953125,0.23779296875,-0.000732421875,1,-22.875,-13.25
1169,0.994873046875,0.242919921875,0.003662109375,1.625,-24.5625,-11.375
1171,0.994873046875,0.242919921875,0.003662109375,1.625,-24.5625,-11.375
1173,0.997802734375,0.24755859375,0.003662109375,2.5625,-26.25,-9.5
1175,0.997802734375,0.24755859375,0.003662109375,2.5625,-26.25,-9.5
1177,0.997802734375,0.24755859375,0.003662109375,2.5625,-26.25,-9.5
1178,0.998046875,0.24560546875,0.0029296875,4.1875,-27.875,-7.8125
1180,0.998046875,0.24560546875,0.0029296875,4.1875,-27.875,-7.8125
1182,0.998291015625,0.236083984375,0.0048828125,5.8125,-30,-5.9375
1184,0.998291015625,0.236083984375,0.0048828125,5.8125,-30,-5.9375
1186,0.99609375,0.224609375,0.010009765625,7.0625,-31.9375,-4.3125
1188,0.99609375,0.224609375,0.010009765625,7.0625,-31.9375,-4.3125
1191,0.98876953125,0.21435546875,0.016357421875,7.875,-33.875,-2.625
1192,0.98876953125,0.21435546875,0.016357421875,7.875,-33.875,-2.625
1194,0.98876953125,0.21435546875,0.016357421875,7.875,-33.875,-2.625
1196,0.969482421875,0.204833984375,0.016845703125,8.5,-36.25,-0.625
1198,0.969482421875,0.204833984375,0.016845703125,8.5,-36.25,-0.625
1200,0.94091796875,0.190185546875,0.00537109375,8.5,-39.0625,1.625
1202,0.94091796875,0.190185546875,0.00537109375,8.5,-39.0625,1.625
1204,0.903564453125,0.17333984375,-0.0185546875,7.25,-41.8125,3.6875
1206,0.903564453125,0.17333984375,-0.0185546875,7.25,-41.8125,3.6875
1208,0.903564453125,0.17333984375,-0.0185546875,7.25,-41.8125,3.6875
1210,0.8642578125,0.16162109375,-0.0380859375,5.8125,-43.25,5.8125
1211,0.8642578125,0.16162109375,-0.0380859375,5.8125,-43.25,5.8125
1214,0.8330078125,0.15771484375,-0.0478515625,4.875,-42.875,7.5625
1216,0.8330078125,0.15771484375,-0.0478515625,4.875,-42.875,7.5625
1218,0.8173828125,0.16357421875,-0.053955078125,4.9375,-41.875,8.1875
1220,0.8173828125,0.16357421875,-0.053955078125,4.9375,-41.875,8.1875
1221,0.8173828125,0.171142578125,-0.06396484375,6.125,-41.1875,7.875
1223,0.8046875,0.171142578125,-0.06396484375,6.125,-41.1875,7.875
1225,0.8046875,0.171142578125,-0.06396484375,6.125,-41.1875,7.875
1227,0.794677734375,0.169921875,-0.067626953125,7.625,-41.25,6.8125
1229,0.794677734375,0.169921875,-0.067626953125,7.625,-41.25,6.8125
1231,0.79833984375,0.15185546875,-0.069580078125,9,-40.9375,5
1233,0.79833984375,0.15185546875,-0.069580078125,9,-40.9375,5
1235,0.814697265625,0.13916015625,-0.0546875,10.875,-39.25,3.125
1237,0.814697265625,0.13916015625,-0.0546875,10.875,-39.25,3.125
1239,0.831298828125,0.13525390625,-0.026123046875,12.5625,-37.3125,1.5
1241,0.831298828125,0.13525390625,-0.026123046875,12.5625,-37.3125,1.5
1243,0.831298828125,0.13525390625,-0.026123046875,12.5625,-37.3125,1.5
1245,0.848876953125,0.1357421875,0.001220703125,13.9375,-36.1875,-0.1875
1247,0.848876953125,0.1357421875,0.001220703125,13.9375,-36.1875,-0.1875
1249,0.864990234375,0.1328125,0.024658203125,15.6875,-36.625,-2.3125
1251,0.864990234375,0.1328125,0.024658203125,15.6875,-36.625,-2.3125
1253,0.883056640625,0.120361328125,0.0341796875,17,-38.0625,-4.5
1255,0.883056640625,0.120361328125,0.0341796875,17,-38.0625,-4.5
1258,0.90234375,0.112548828125,0.030029296875,18.3125,-39.5625,-5.875
1259,0.90234375,0.112548828125,0.030029296875,18.3125,-39.5625,-5.875
1262,0.919921875,0.11572265625,0.029052734375,19.375,-40.375,-6.375
1264,0.919921875,0.11572265625,0.029052734375,19.375,-40.375,-6.375
1265,0.919921875,0.11572265625,0.029052734375,19.375,-40.375,-6.375
1267,0.944580078125,0.12548828125,0.0341796875,20.25,-40.25,-5.8125
1269,0.944580078125,0.12548828125,0.0341796875,20.25,-40.25,-5.8125
1271,0.977294921875,0.13232421875,0.035888671875,21.5625,-40.875,-4.6875
1273,0.977294921875,0.13232421875,0.035888671875,21.5625,-40.875,-4.6875
1275,1.009033203125,0.135009765625,0.02685546875,22.875,-43.125,-3.1875
1277,1.009033203125,0.135009765625,0.02685546875,22.875,-43.125,-3.1875
1279,1.026123046875,0.1337890625,0.011962890625,23.25,-46.625,-1.25
1281,1.026123046875,0.1337890625,0.011962890625,23.25,-46.625,-1.25
1283,1.026123046875,0.1337890625,0.011962890625,23.25,-46.625,-1.25
1285,1.02490234375,0.129150390625,-0.0048828125,22.5,-50.1875,0.5625
1287,1.02490234375,0.129150390625,-0.0048828125,22.5,-50.1875,0.5625
1289,1.017578125,0.11962890625,-0.015869140625,21.25,-53,2.5
1291,1.017578125,0.11962890625,-0.015869140625,21.25,-53,2.5
1293,1.01318359375,0.11181640625,-0.0224609375,19.8125,-55.0625,4.0625
1295,1.01318359375,0.11181640625,-0.0224609375,19.8125,-55.0625,4.0625
1297,1.01318359375,0.11181640625,-0.0224609375,19.8125,-56.5625,5.25
1298,1.004150390625,0.120849609375,-0.020263671875,19,-56.5625,5.25
1300,1.004150390625,0.120849609375,-0.020263671875,19,-56.5625,5.25
1303,0.99365234375,0.143310546875,-0.021484375,19.25,-58.0625,5.625
1305,0.99365234375,0.143310546875,-0.021484375,19.25,-58.0625,5.625
1307,0.976318359375,0.16943359375,-0.040283203125,20,-60.1875,5.1875
1309,0.976318359375,0.16943359375,-0.040283203125,20,-60.1875,5.1875
1311,0.947265625,0.1962890625,-0.072021484375,20.4375,-63.1875,4.6875
1312,0.947265625,0.1962890625,-0.072021484375,20.4375,-63.1875,4.6875
1314,0.947265625,0.1962890625,-0.072021484375,20.4375,-66.1875,4.125
1316,0.9169921875,0.21142578125,-0.10498046875,20,-66.1875,4.125
1318,0.9169921875,0.21142578125,-0.10498046875,20,-66.1875,4.125
1320,0.885498046875,0.217041015625,-0.130859375,18.6875,-67.875,4.5
1322,0.885498046875,0.217041015625,-0.130859375,18.6875,-67.875,4.5
1324,0.84912109375,0.2294921875,-0.15087890625,17.4375,-67.3125,5.6875
1326,0.84912109375,0.2294921875,-0.15087890625,17.4375,-67.3125,5.6875
1328,0.81494140625,0.243408203125,-0.183349609375,16.8125,-64.75,8
1330,0.81494140625,0.243408203125,-0.183349609375,16.8125,-64.75,8
1332,0.81494140625,0.243408203125,-0.245849609375,17.5625,-61,11.75
1334,0.798583984375,0.247314453125,-0.2314453125,17.5625,-61,11.75
1336,0.798583984375,0.247314453125,-0.2314453125,17.5625,-61,11.75
1338,0.79443359375,0.25048828125,-0.274658203125,17.6875,-56.25,16.625
1340,0.79443359375,0.25048828125,-0.274658203125,17.6875,-56.25,16.625
1342,0.79052734375,0.243896484375,-0.299560546875,16.875,-50.5,21.25
1344,0.79052734375,0.243896484375,-0.299560546875,16.875,-50.5,21.25
1346,0.796142578125,0.2216796875,-0.304443359375,15.9375,-44.75,25.5625
1348,0.796142578125,0.2216796875,-0.304443359375,15.9375,-44.75,25.5625
1350,0.796142578125,0.2216796875,-0.30126953125,15.0625,-40.0625,29.875
1352,0.82470703125,0.189453125,-0.30126953125,15.0625,-40.0625,29.875
1354,0.82470703125,0.189453125,-0.30126953125,15.0625,-40.0625,29.875
1356,0.860107421875,0.1611328125,-0.28369140625,14,-36.125,33.125
1357,0.860107421875,0.1611328125,-0.28369140625,14,-36.125,33.125
1359,0.88330078125,0.1416015625,-0.254150390625,12.8125,-33.0625,34.8125
1361,0.88330078125,0.1416015625,-0.254150390625,12.8125,-33.0625,34.8125
1363,0.88330078125,0.12646484375,-0.2255859375,11.5625,-30.875,35.0625
1365,0.896728515625,0.12646484375,-0.2255859375,11.5625,-30.875,35.0625
1368,0.896728515625,0.06396484375,-0.199462890625,10.5,-29.8125,33.8125
1370,0.905029296875,0.10498046875,-0.199462890625,10.5,-29.8125,33.8125
1371,0.905029296875,0.10498046875,-0.199462890625,10.5,-29.8125,33.8125
1373,0.913818359375,0.078369140625,-0.18798828125,10.3125,-30.0625,31.625
1375,0.913818359375,0.078369140625,-0.18798828125,10.3125,-30.0625,31.625
1377,0.92724609375,0.06005859375,-0.190673828125,9.875,-31.125,29.0625
1379,0.92724609375,0.06005859375,-0.190673828125,9.875,-31.125,29.0625
1381,0.935791015625,0.053955078125,-0.198974609375,8.625,-31.75,26.3125
1383,0.935791015625,0.053955078125,-0.198974609375,8.625,-31.75,26.3125
1385,0.935791015625,0.053955078125,-0.198974609375,8.625,-31.75,26.3125
1387,0.9326171875,0.058349609375,-0.206298828125,6.9375,-31.375,23.6875
1389,0.9326171875,0.058349609375,-0.206298828125,6.9375,-31.375,23.6875
1391,0.924560546875,0.068359375,-0.20947265625,4.9375,-30.4375,21.125
1393,0.924560546875,0.068359375,-0.20947265625,4.9375,-30.4375,21.125
1395,0.920166015625,0.07958984375,-0.2109375,3.375,-29.3125,18.75
1397,0.920166015625,0.07958984375,-0.2109375,3.375,-29.3125,18.75
1399,0.92822265625,0.093017578125,-0.215087890625,3.125,-28.5,16.5625
1401,0.92822265625,0.093017578125,-0.215087890625,3.125,-28.5,16.5625
1403,0.92822265625,0.093017578125,-0.215087890625,3.125,-28.5,16.5625
1405,0.944580078125,0.10205078125,-0.219970703125,4.0625,-28.5,13.9375
1406,0.944580078125,0.10205078125,-0.219970703125,4.0625,-28.5,13.9375
1408,0.957763671875,0.110107421875,-0.219482421875,4.625,-29.3125,11.3125
1411,0.957763671875,0.110107421875,-0.219482421875,4.625,-29.3125,11.3125
1413,0.9599609375,0.115966796875,-0.220947265625,4.25,-30.125,9.875
1415,0.9599609375,0.115966796875,-0.220947265625,4.25,-30.125,9.875
1417,0.953369140625,0.122802734375,-0.228271484375,2.875,-30.4375,9.5625
1418,0.953369140625,0.122802734375,-0.228271484375,2.875,-30.4375,9.5625
1420,0.953369140625,0.122802734375,-0.228271484375,2.875,-30.4375,9.5625
1422,0.9501953125,0.12744140625,-0.248046875,1.75,-31.3125,10
1424,0.9501953125,0.12744140625,-0.248046875,1.75,-31.3125,10
1426,0.955810546875,0.129150390625,-0.27587890625,1.4375,-32.3125,10.125
1428,0.955810546875,0.129150390625,-0.27587890625,1.4375,-32.3125,10.125
1430,0.9560546875,0.123779296875,-0.301513671875,1.5,-33.1875,9.1875
1432,0.9560546875,0.123779296875,-0.301513671875,1.5,-33.1875,9.1875
1434,0.94140625,0.114501953125,-0.3291015625,1.6875,-33.4375,7.5
1436,0.94140625,0.114501953125,-0.3291015625,1.6875,-33.4375,7.5
1438,0.94140625,0.114501953125,-0.3291015625,1.6875,-33.4375,7.5
1440,0.917724609375,0.10302734375,-0.343017578125,1.6875,-32.375,5.25
1442,0.917724609375,0.10302734375,-0.343017578125,1.6875,-32.375,5.25
1444,0.89892578125,0.097900390625,-0.335693359375,2.125,-29.8125,3.25
1446,0.89892578125,0.097900390625,-0.335693359375,2.125,-29.8125,3.25
1448,0.897216796875,0.10009765625,-0.31787109375,3.3125,-26.25,1.625
1450,0.897216796875,0.10009765625,-0.31787109375,3.3125,-26.25,1.625
1452,0.909423828125,0.10595703125,-0.299560546875,4.6875,-23.25,0.375
1455,0.909423828125,0.10595703125,-0.299560546875,4.6875,-23.25,0.375
1457,0.914306640625,0.108154296875,-0.281982421875,6.0625,-20.8125,-0.375
1458,0.914306640625,0.108154296875,-0.281982421875,6.0625,-20.8125,-0.375
1460,0.914306640625,0.108154296875,-0.281982421875,6.0625,-20.8125,-0.375
1462,0.9072265625,0.103515625,-0.25927734375,6.75,-18.5,-0.625
1464,0.9072265625,0.103515625,-0.25927734375,6.75,-18.5,-0.625
1466,0.900390625,0.09619140625,-0.2265625,6.3125,-16.25,-0.625
1468,0.900390625,0.09619140625,-0.2265625,6.3125,-16.25,-0.625
1470,0.916259765625,0.094970703125,-0.199462890625,5.5,-14.75,-0.125
1472,0.916259765625,0.094970703125,-0.199462890625,5.5,-14.75,-0.125
1474,0.916259765625,0.094970703125,-0.199462890625,5.5,-14.75,-0.125
1475,0.9443359375,0.111083984375,-0.196044921875,4.75,-15,0.6875
1478,0.9443359375,0.111083984375,-0.196044921875,4.75,-15,0.6875
1480,0.958740234375,0.13037109375,-0.208740234375,3.9375,-16.875,1.625
1482,0.958740234375,0.13037109375,-0.208740234375,3.9375,-16.875,1.625
1484,0.94677734375,0.136474609375,-0.2236328125,3.5,-19.1875,2.3125
1486,0.94677734375,0.136474609375,-0.2236328125,3.5,-19.1875,2.3125
1488,0.918701171875,0.130859375,-0.241943359375,2.9375,-20.9375,2.9375
1490,0.918701171875,0.130859375,-0.241943359375,2.9375,-20.9375,2.9375
1491,0.918701171875,0.130859375,-0.241943359375,2.9375,-20.9375,2.9375
1493,0.897705078125,0.119140625,-0.2666015625,2.5625,-21.5625,3.625
1495,0.897705078125,0.119140625,-0.2666015625,2.5625,-21.5625,3.625
1497,0.894287109375,0.103515625,-0.287353515625,2.8125,-21.8125,4.9375
1500,0.894287109375,0.103515625,-0.287353515625,2.8125,-21.8125,4.9375
1502,0.89697265625,0.0830078125,-0.306640625,2.5625,-22.3125,6.4375
1503,0.89697265625,0.0830078125,-0.306640625,2.5625,-22.3125,6.4375
1505,0.894287109375,0.062255859375,-0.330078125,0.5625,-23.0625,8.0625
1507,0.894287109375,0.062255859375,-0.330078125,0.5625,-23.0625,8.0625
1509,0.894287109375,0.062255859375,-0.330078125,0.5625,-23.0625,9.4375
1511,0.87939453125,0.04248046875,-0.353759765625,-2.6875,-23.3125,9.4375
1513,0.87939453125,0.04248046875,-0.353759765625,-2.6875,-23.3125,9.4375
1515,0.853759765625,0.027099609375,-0.368408203125,-5.6875,-22.625,9.9375
1517,0.853759765625,0.027099609375,-0.368408203125,-5.6875,-22.625,9.9375
1519,0.8359375,0.012939453125,-0.375,-7.0625,-21.5,9.5
1521,0.8359375,0.012939453125,-0.375,-7.0625,-21.5,9.5
1523,0.833984375,0.006103515625,-0.38427734375,-6.625,-19.8125,7.6875
1525,0.833984375,0.006103515625,-0.38427734375,-6.625,-19.8125,7.6875
1527,0.833984375,0.006103515625,-0.38427734375,-6.625,-18.1875,5.125
1529,0.83447265625,0.003662109375,-0.386962890625,-5.4375,-18.1875,5.125
1531,0.83447265625,0.003662109375,-0.386962890625,-5.4375,-18.1875,5.125
1533,0.827392578125,0.0087890625,-0.382080078125,-4.6875,-17,2
1535,0.827392578125,0.0087890625,-0.382080078125,-4.6875,-17,2
1537,0.814208984375,0.012451171875,-0.374267578125,-4.5625,-16.25,-1.1875
1538,0.814208984375,0.012451171875,-0.374267578125,-4.5625,-16.25,-1.1875
1540,0.814208984375,0.012451171875,-0.374267578125,-4.5625,-15.625,-3.4375
1543,0.798828125,0.015625,-0.362060546875,-4.75,-15.625,-3.4375
1545,0.798828125,0.015625,-0.362060546875,-4.75,-15.625,-5.6875
1547,0.78515625,0.0224609375,-0.361328125,-4.75,-15,-5.6875
1548,0.78515625,0.0224609375,-0.361328125,-4.75,-15,-5.6875
1550,0.764404296875,0.025634765625,-0.373779296875,-4.625,-14.8125,-7.1875
1552,0.764404296875,0.025634765625,-0.373779296875,-4.625,-14.8125,-7.1875
1554,0.740966796875,0.027587890625,-0.39453125,-4.25,-14.75,-7.9375
1556,0.740966796875,0.027587890625,-0.39453125,-4.25,-14.75,-7.9375
1558,0.740966796875,0.027587890625,-0.425537109375,-3.9375,-15.25,-8
1560,0.712158203125,0.04296875,-0.425537109375,-3.9375,-15.25,-8
1562,0.712158203125,0.04296875,-0.425537109375,-3.9375,-15.25,-8
1564,0.6796875,0.060546875,-0.464599609375,-4.4375,-16,-8.1875
1566,0.6796875,0.060546875,-0.464599609375,-4.4375,-16,-8.1875
1568,0.6455078125,0.06103515625,-0.503173828125,-4.625,-16.6875,-9.5
1570,0.6455078125,0.06103515625,-0.503173828125,-4.625,-16.6875,-9.5
1572,0.618896484375,0.055908203125,-0.532470703125,-4.375,-17.1875,-11.5
1574,0.618896484375,0.055908203125,-0.532470703125,-4.375,-17.1875,-11.5
1576,0.618896484375,0.055908203125,-0.532470703125,-4.375,-17.1875,-14.0625
1577,0.606689453125,0.056640625,-0.550048828125,-3.8125,-17.5625,-14.0625
1580,0.606689453125,0.056640625,-0.550048828125,-3.8125,-17.5625,-14.0625
1582,0.605712890625,0.078369140625,-0.570068359375,-1.75,-17.75,-17.375
1583,0.605712890625,0.078369140625,-0.570068359375,-1.75,-17.75,-17.375
1586,0.611083984375,0.106689453125,-0.593017578125,1.3125,-17.5625,-21.75
1588,0.611083984375,0.106689453125,-0.593017578125,1.3125,-17.5625,-21.75
1590,0.615234375,0.114990234375,-0.60400390625,5.125,-17.125,-27.375
1592,0.615234375,0.114990234375,-0.60400390625,5.125,-17.125,-27.375
1594,0.62060546875,0.11083984375,-0.5927734375,8.0625,-17.25,-33.8125
1595,0.62060546875,0.11083984375,-0.5927734375,8.0625,-17.25,-33.8125
1597,0.62060546875,0.11083984375,-0.5927734375,8.0625,-17.25,-33.8125
1599,0.65283203125,0.105224609375,-0.57763671875,9.4375,-18.4375,-39.25
1601,0.65283203125,0.105224609375,-0.57763671875,9.4375,-18.4375,-39.25
1603,0.701904296875,0.1142578125,-0.579345703125,10.0625,-19.4375,-42.625
1605,0.701904296875,0.1142578125,-0.579345703125,10.0625,-19.4375,-42.625
1608,0.733642578125,0.140869140625,-0.587158203125,10.5625,-19.3125,-44.5625
1610,0.733642578125,0.140869140625,-0.587158203125,10.5625,-19.3125,-44.5625
1612,0.7509765625,0.162353515625,-0.597900390625,11.4375,-18.5625,-46.0625
1613,0.7509765625,0.162353515625,-0.597900390625,11.4375,-18.5625,-46.0625
1615,0.7509765625,0.162353515625,-0.597900390625,11.4375,-18.5625,-46.0625
1617,0.767333984375,0.174560546875,-0.59912109375,12.125,-17.3125,-46.5625
1619,0.767333984375,0.174560546875,-0.59912109375,12.125,-17.3125,-46.5625
1621,0.782470703125,0.182861328125,-0.59228515625,12.0625,-15.5625,-45.4375
1623,0.782470703125,0.182861328125,-0.59228515625,12.0625,-15.5625,-45.4375
1625,0.7998046875,0.188232421875,-0.580810546875,11,-13.9375,-42.5
1627,0.7998046875,0.188232421875,-0.580810546875,11,-13.9375,-42.5
1629,0.8203125,0.19677734375,-0.56494140625,9.0625,-12,-37.625
1631,0.8203125,0.19677734375,-0.56494140625,9.0625,-12,-37.625
1633,0.8203125,0.19677734375,-0.56494140625,9.0625,-12,-37.625
1635,0.846923828125,0.20751953125,-0.54541015625,6.4375,-9.5625,-31.375
1637,0.846923828125,0.20751953125,-0.54541015625,6.4375,-9.5625,-31.375
1639,0.879638671875,0.218505859375,-0.525146484375,3.75,-6.6875,-25.125
1641,0.879638671875,0.218505859375,-0.525146484375,3.75,-6.6875,-25.125
1643,0.90234375,0.232666015625,-0.499755859375,2.3125,-3.75,-20.0625
1645,0.90234375,0.232666015625,-0.499755859375,2.3125,-3.75,-20.0625
1647,0.918212890625,0.24755859375,-0.4853515625,2.25,-1.875,-15.5625
1649,0.918212890625,0.24755859375,-0.4853515625,2.25,-1.875,-15.5625
1652,0.93115234375,0.25537109375,-0.4755859375,2.625,-0.5625,-11.4375
1654,0.93115234375,0.25537109375,-0.4755859375,2.625,-0.5625,-11.4375
1655,0.93115234375,0.25537109375,-0.4755859375,2.625,0.6875,-7.625
1657,0.935546875,0.254150390625,-0.46728515625,2.9375,0.6875,-7.625
1659,0.935546875,0.254150390625,-0.46728515625,2.9375,0.6875,-7.625
1661,0.941162109375,0.248291015625,-0.45654296875,3.4375,2.6875,-3.9375
1663,0.941162109375,0.248291015625,-0.45654296875,3.4375,2.6875,-3.9375
1665,0.959716796875,0.24365234375,-0.44677734375,4.3125,5.3125,-0.125
1667,0.959716796875,0.24365234375,-0.44677734375,4.3125,5.3125,-0.125
1669,0.959716796875,0.24365234375,-0.438720703125,5.8125,7.25,3.6875
1671,0.977783203125,0.241455078125,-0.438720703125,5.8125,7.25,3.6875
1673,0.977783203125,0.241455078125,-0.438720703125,6.5625,8.0625,6.75
1675,0.98828125,0.238037109375,-0.443115234375,6.5625,8.0625,6.75
1677,0.98828125,0.238037109375,-0.443115234375,6.5625,8.0625,6.75
1679,0.9873046875,0.219970703125,-0.452880859375,6.75,7.8125,8.5
1681,0.9873046875,0.219970703125,-0.452880859375,6.75,7.8125,8.5
1683,0.97998046875,0.193115234375,-0.450927734375,6.9375,7.875,9.125
1685,0.97998046875,0.193115234375,-0.450927734375,6.9375,7.875,9.125
1687,0.982666015625,0.166748046875,-0.437744140625,7.625,9.25,9.125
1689,0.982666015625,0.166748046875,-0.437744140625,7.625,9.25,9.125
1691,0.982666015625,0.166748046875,-0.437744140625,7.625,9.25,9.125
1692,0.999267578125,0.148193359375,-0.422607421875,8.75,11.125,9.5
1694,0.999267578125,0.148193359375,-0.422607421875,8.75,11.125,9.5
1697,1.013427734375,0.133056640625,-0.412841796875,9,11.875,10.6875
1699,1.013427734375,0.133056640625,-0.412841796875,9,11.875,10.6875
1701,1.012451171875,0.113037109375,-0.411865234375,7.875,10.8125,12.1875
1703,1.012451171875,0.113037109375,-0.411865234375,7.875,10.8125,12.1875
1705,0.99462890625,0.083984375,-0.420166015625,5.625,9.0625,13.25
1707,0.99462890625,0.083984375,-0.420166015625,5.625,9.0625,13.25
1708,0.99462890625,0.083984375,-0.420166015625,5.625,9.0625,13.25
1710,0.9716796875,0.052978515625,-0.420166015625,3.75,8.25,13.625
1712,0.9716796875,0.052978515625,-0.420166015625,3.75,8.25,13.625
1714,0.96142578125,0.035400390625,-0.407470703125,2.6875,9.25,13.1875
1716,0.96142578125,0.035400390625,-0.407470703125,2.6875,9.25,13.1875
1719,0.965576171875,0.036865234375,-0.383544921875,2.375,10.625,12.0625
1721,0.965576171875,0.036865234375,-0.383544921875,2.375,10.625,12.0625
1722,0.970703125,0.04345703125,-0.35693359375,2.375,11.1875,10.625
1724,0.970703125,0.04345703125,-0.35693359375,2.375,11.1875,10.625
1726,0.970703125,0.04345703125,-0.35693359375,2.375,11.1875,10.625
1728,0.9658203125,0.04345703125,-0.335693359375,1.8125,10.0625,9.3125
1730,0.9658203125,0.04345703125,-0.335693359375,1.8125,10.0625,9.3125
1732,0.950927734375,0.03955078125,-0.318603515625,0.5,8.25,8.5
1734,0.950927734375,0.03955078125,-0.318603515625,0.5,8.25,8.5
1736,0.93701171875,0.035400390625,-0.304931640625,-1.0625,6.875,8.1875
1738,0.93701171875,0.035400390625,-0.304931640625,-1.0625,6.875,8.1875
1740,0.93701171875,0.035400390625,-0.304931640625,-1.0625,6.875,8
1742,0.93310546875,0.043701171875,-0.296875,-2,6.625,8
1744,0.93310546875,0.043701171875,-0.296875,-2,6.625,8
1746,0.926513671875,0.06298828125,-0.297119140625,-2.25,6.25,8
1748,0.926513671875,0.06298828125,-0.297119140625,-2.25,6.25,8
1749,0.908203125,0.07177734375,-0.299560546875,-2.125,5.125,8.5
1751,0.908203125,0.07177734375,-0.299560546875,-2.125,5.125,8.5
1753,0.875,0.07080078125,-0.3095703125,-2.5,3.5625,8.4375
1755,0.875,0.07080078125,-0.3095703125,-2.5,3.5625,8.4375
1757,0.875,0.07080078125,-0.3095703125,-2.5,3.5625,8.4375
1759,0.835693359375,0.070556640625,-0.325439453125,-3.75,1.9375,8.625
1761,0.835693359375,0.070556640625,-0.325439453125,-3.75,1.9375,8.625
1763,0.80908203125,0.070556640625,-0.345703125,-5.8125,1.125,9.5625
1765,0.80908203125,0.070556640625,-0.345703125,-5.8125,1.125,9.5625
1767,0.794189453125,0.074462890625,-0.36328125,-7.4375,2.0625,10.8125
1769,0.794189453125,0.074462890625,-0.36328125,-7.4375,2.0625,10.8125
1771,0.780517578125,0.092041015625,-0.376708984375,-8.0625,4.3125,12.25
1773,0.780517578125,0.092041015625,-0.376708984375,-8.0625,4.3125,12.25
1775,0.780517578125,0.092041015625,-0.376708984375,-8.0625,4.3125,12.25
1777,0.769775390625,0.111328125,-0.3935546875,-8.375,6.5,13.75
1779,0.769775390625,0.111328125,-0.3935546875,-8.375,6.5,13.75
1780,0.76220703125,0.11376953125,-0.412353515625,-8.25,7.9375,14.9375
1782,0.76220703125,0.11376953125,-0.412353515625,-8.25,7.9375,14.9375
1784,0.75439453125,0.10693359375,-0.432373046875,-7.75,9.4375,15.4375
1787,0.75439453125,0.10693359375,-0.432373046875,-7.75,9.4375,15.4375
1790,0.75048828125,0.095947265625,-0.440673828125,-7.375,11.4375,15.4375
1793,0.7578125,0.094482421875,-0.43603515625,-7.0625,14,15.3125
1795,0.7578125,0.094482421875,-0.43603515625,-7.0625,14,15.3125
1797,0.773193359375,0.106689453125,-0.429931640625,-6.9375,16.5,15.625
1799,0.773193359375,0.106689453125,-0.429931640625,-6.9375,16.5,15.625
1801,0.773193359375,0.106689453125,-0.429931640625,-6.9375,16.5,15.625
1803,0.78466796875,0.119384765625,-0.427490234375,-7.0625,18.4375,16.3125
1805,0.78466796875,0.119384765625,-0.427490234375,-7.0625,18.4375,16.3125
1807,0.78955078125,0.126708984375,-0.42431640625,-6.6875,19.6875,16.75
1809,0.78955078125,0.126708984375,-0.42431640625,-6.6875,19.6875,16.75
1812,0.7919921875,0.13037109375,-0.41455078125,-6.125,20.5,16.8125
1813,0.7919921875,0.13037109375,-0.41455078125,-6.125,20.5,16.8125
1815,0.801513671875,0.12939453125,-0.415283203125,-5.6875,20.75,16.875
1817,0.801513671875,0.12939453125,-0.415283203125,-5.6875,20.75,16.875
1819,0.816650390625,0.12841796875,-0.418212890625,-5.4375,20.75,16.3125
1821,0.816650390625,0.12841796875,-0.418212890625,-5.4375,20.75,16.3125
1823,0.816650390625,0.12841796875,-0.418212890625,-5.4375,20.75,16.3125
1825,0.831787109375,0.13916015625,-0.413818359375,-5.375,21.1875,16
1827,0.831787109375,0.13916015625,-0.413818359375,-5.375,21.1875,16
1830,0.84033203125,0.154052734375,-0.40771484375,-5,21.8125,15.9375
1832,0.84033203125,0.154052734375,-0.40771484375,-5,21.8125,15.9375
1834,0.841552734375,0.1630859375,-0.395751953125,-4.5,21.5625,15.5
1836,0.841552734375,0.1630859375,-0.395751953125,-4.5,21.5625,15.5
1838,0.842529296875,0.161376953125,-0.379150390625,-4.5625,20.25,14.9375
1840,0.842529296875,0.161376953125,-0.379150390625,-4.5625,20.25,14.9375
1841,0.842529296875,0.161376953125,-0.379150390625,-5.625,17.6875,15
1844,0.843017578125,0.161376953125,-0.36376953125,-5.625,17.6875,15
1846,0.837646484375,0.164306640625,-0.357421875,-7.6875,14.875,15.5625
1848,0.837646484375,0.164306640625,-0.357421875,-7.6875,14.875,15.5625
1850,0.837646484375,0.164306640625,-0.357421875,-7.6875,14.875,15.5625
1852,0.83154296875,0.166259765625,-0.349609375,-10.3125,13.0625,16.125
1854,0.83154296875,0.166259765625,-0.349609375,-10.3125,13.0625,16.125
1856,0.82568359375,0.168701171875,-0.3359375,-12.5625,12.0625,17.375
1858,0.82568359375,0.168701171875,-0.3359375,-12.5625,12.0625,17.375
1860,0.821044921875,0.1630859375,-0.324951171875,-13.625,10.6875,18.875
1862,0.821044921875,0.1630859375,-0.324951171875,-13.625,10.6875,18.875
1864,0.82470703125,0.15087890625,-0.32177734375,-14.3125,8.4375,19.625
1866,0.82470703125,0.15087890625,-0.32177734375,-14.3125,8.4375,19.625
1868,0.82470703125,0.15087890625,-0.32177734375,-14.3125,8.4375,19.625
1870,0.824951171875,0.14306640625,-0.32177734375,-15.0625,5.625,19.625
1871,0.824951171875,0.14306640625,-0.32177734375,-15.0625,5.625,19.625
1873,0.820556640625,0.14599609375,-0.333984375,-15.3125,3.1875,19.125
1875,0.820556640625,0.14599609375,-0.333984375,-15.3125,3.1875,19.125
1878,0.81689453125,0.151611328125,-0.353515625,-14.1875,1.8125,18.3125
1880,0.81689453125,0.151611328125,-0.353515625,-14.1875,1.8125,18.3125
1882,0.816650390625,0.148193359375,-0.3701171875,-11.5,1.75,16.875
1884,0.816650390625,0.148193359375,-0.3701171875,-11.5,1.75,16.875
1886,0.816650390625,0.148193359375,-0.3701171875,-11.5,1.75,16.875
1887,0.82470703125,0.136962890625,-0.385498046875,-7.8125,2.3125,14.875
1889,0.82470703125,0.136962890625,-0.385498046875,-7.8125,2.3125,14.875
1891,0.838623046875,0.125,-0.399169921875,-4.1875,2.875,12.9375
1893,0.838623046875,0.125,-0.399169921875,-4.1875,2.875,12.9375
1895,0.848876953125,0.117919921875,-0.41015625,-1.125,4,11.3125
1897,0.848876953125,0.117919921875,-0.41015625,-1.125,4,11.3125
1899,0.847900390625,0.108642578125,-0.413330078125,1.375,6.125,9.75
1901,0.847900390625,0.108642578125,-0.413330078125,1.375,6.125,9.75
1903,0.847900390625,0.108642578125,-0.413330078125,1.375,6.125,9.75
1905,0.843017578125,0.0927734375,-0.418701171875,3.5625,9.0625,8.875
1907,0.843017578125,0.0927734375,-0.418701171875,3.5625,9.0625,8.875
1909,0.846435546875,0.07470703125,-0.41943359375,5.5625,12.5625,8.8125
1911,0.846435546875,0.07470703125,-0.41943359375,5.5625,12.5625,8.8125
1913,0.8603515625,0.066162109375,-0.404296875,7.75,17.1875,9.1875
1915,0.8603515625,0.066162109375,-0.404296875,7.75,17.1875,9.1875
1917,0.87841796875,0.065185546875,-0.3798828125,9.5,21.5,9.9375
1919,0.87841796875,0.065185546875,-0.3798828125,9.5,21.5,9.9375
1921,0.87841796875,0.065185546875,-0.3798828125,9.5,21.5,9.9375
1923,0.892578125,0.062255859375,-0.353515625,10,23.9375,10.6875
1925,0.892578125,0.062255859375,-0.353515625,10,23.9375,10.6875
1927,0.89404296875,0.054443359375,-0.331787109375,9.625,24.125,11.625
1929,0.89404296875,0.054443359375,-0.331787109375,9.625,24.125,11.625
1931,0.900146484375,0.041015625,-0.31201171875,8.8125,23.8125,12.6875
1933,0.900146484375,0.041015625,-0.31201171875,8.8125,23.8125,12.6875
1935,0.919189453125,0.029296875,-0.297119140625,7.6875,24.375,13.75
1937,0.919189453125,0.029296875,-0.297119140625,7.6875,24.375,13.75
1939,0.919189453125,0.029296875,-0.297119140625,7.6875,24.375,13.75
1940,0.936767578125,0.02978515625,-0.287109375,6.8125,25.0625,14.875
1942,0.936767578125,0.02978515625,-0.287109375,6.8125,25.0625,14.875
1945,0.944091796875,0.037109375,-0.287109375,5.9375,24.4375,16.125
1947,0.944091796875,0.037109375,-0.287109375,5.9375,24.4375,16.125
1949,0.931640625,0.044677734375,-0.291259765625,5,22.9375,16.9375
1951,0.931640625,0.044677734375,-0.291259765625,5,22.9375,16.9375
1953,0.912109375,0.045654296875,-0.30029296875,4.3125,20.5,17.5625
1955,0.912109375,0.045654296875,-0.30029296875,4.3125,20.5,17.5625
1956,0.912109375,0.045654296875,-0.30029296875,4.3125,20.5,17.5625
1958,0.907958984375,0.041015625,-0.311767578125,3.9375,18.875,17.75
1960,0.907958984375,0.041015625,-0.311767578125,3.9375,18.875,17.75
1962,0.9208984375,0.040771484375,-0.31396484375,4.0625,18.625,17.625
1964,0.9208984375,0.040771484375,-0.31396484375,4.0625,18.625,17.625
1966,0.934326171875,0.052001953125,-0.31201171875,4.25,19.5,17.6875
1968,0.934326171875,0.052001953125,-0.31201171875,4.25,19.5,17.6875
1970,0.94189453125,0.06494140625,-0.314453125,4.3125,19.75,17.6875
1972,0.94189453125,0.06494140625,-0.314453125,4.3125,19.75,17.6875
1974,0.94189453125,0.06494140625,-0.314453125,4.3125,19.75,17.6875
1976,0.939697265625,0.069580078125,-0.32177734375,4.875,19.1875,17.4375
1978,0.939697265625,0.069580078125,-0.32177734375,4.875,19.1875,17.4375
1980,0.935546875,0.070556640625,-0.333984375,5.375,18.3125,16.5625
1982,0.935546875,0.070556640625,-0.333984375,5.375,18.3125,16.5625
1984,0.936279296875,0.07080078125,-0.34326171875,6.125,18.125,15.6875
1986,0.936279296875,0.07080078125,-0.34326171875,6.125,18.125,15.6875
1988,0.936279296875,0.07080078125,-0.34326171875,6.125,18.4375,14.75
1990,0.941162109375,0.07080078125,-0.34912109375,7.4375,18.4375,14.75
1992,0.941162109375,0.07080078125,-0.34912109375,7.4375,18.4375,14.75
1994,0.9462890625,0.07080078125,-0.355712890625,8.625,18.8125,13.75
1996,0.9462890625,0.07080078125,-0.355712890625,8.625,18.8125,13.75
1998,0.946533203125,0.0712890625,-0.369140625,9.5625,18.4375,12.6875
1999,0.946533203125,0.0712890625,-0.369140625,9.5625,18.4375,12.6875
2001,0.939208984375,0.0712890625,-0.3857421875,10,17.625,11.5625
2003,0.939208984375,0.0712890625,-0.3857421875,10,17.625,11.5625
2005,0.939208984375,0.0712890625,-0.3857421875,10,17.625,11.5625
2007,0.93359375,0.06689453125,-0.40576171875,10.625,16.9375,10.5625
2009,0.93359375,0.06689453125,-0.40576171875,10.625,16.9375,10.5625
2011,0.934326171875,0.06005859375,-0.419677734375,11.75,17.6875,9.8125
2013,0.934326171875,0.06005859375,-0.419677734375,11.75,17.6875,9.8125
2015,0.939208984375,0.0556640625,-0.425537109375,12.9375,19.5,9.1875
2017,0.939208984375,0.0556640625,-0.425537109375,12.9375,19.5,9.1875
2019,0.947021484375,0.0498046875,-0.42578125,13.8125,21.125,9.1875
2021,0.947021484375,0.0498046875,-0.42578125,13.8125,21.125,9.1875
2023,0.947021484375,0.0498046875,-0.42578125,14.4375,22.4375,9.4375
2025,0.953125,0.051513671875,-0.419189453125,14.4375,22.4375,9.4375
2027,0.953125,0.051513671875,-0.419189453125,14.4375,22.4375,9.4375
2029,0.95654296875,0.05810546875,-0.414794921875,14.9375,23.25,9.875
2031,0.95654296875,0.05810546875,-0.414794921875,14.9375,23.25,9.875
2033,0.961181640625,0.05908203125,-0.413330078125,15.125,23.5625,10.3125
2035,0.961181640625,0.05908203125,-0.413330078125,15.125,23.5625,10.3125
2037,0.97119140625,0.056884765625,-0.411865234375,15.5,23.5,11
2039,0.97119140625,0.056884765625,-0.411865234375,15.5,23.5,11
2041,0.97607421875,0.0556640625,-0.405517578125,16.0625,23.375,11.875
2043,0.97607421875,0.0556640625,-0.405517578125,16.0625,23.375,11.875
2046,0.97509765625,0.054931640625,-0.39892578125,16.625,23.3125,12.75
2048,0.97509765625,0.054931640625,-0.39892578125,16.625,23.3125,12.75
2049,0.97509765625,0.054931640625,-0.39892578125,16.625,23.3125,12.75
2051,0.967041015625,0.050537109375,-0.397705078125,17.25,22.625,13.75
2053,0.967041015625,0.050537109375,-0.397705078125,17.25,22.625,13.75
2055,0.954833984375,0.044921875,-0.40869140625,17.5,21.25,14.25
2058,0.954833984375,0.044921875,-0.40869140625,17.5,21.25,14.25
2060,0.943359375,0.037353515625,-0.4326171875,17.8125,19.5,14.3125
2062,0.943359375,0.037353515625,-0.4326171875,17.8125,19.5,14.3125
2063,0.934326171875,0.02685546875,-0.459716796875,18.25,18.4375,13.9375
2065,0.934326171875,0.02685546875,-0.459716796875,18.25,18.4375,13.9375
2067,0.934326171875,0.02685546875,-0.459716796875,18.25,18.4375,13.9375
2069,0.9267578125,0.020263671875,-0.486083984375,18.5,18.375,13.75
2071,0.9267578125,0.020263671875,-0.486083984375,18.5,18.375,13.75
2073,0.92138671875,0.018310546875,-0.5029296875,18.5625,19.125,13.6875
2075,0.92138671875,0.018310546875,-0.5029296875,18.5625,19.125,13.6875
2077,0.91845703125,0.0166015625,-0.519287109375,18.5625,19.875,13.9375
2080,0.91845703125,0.0166015625,-0.519287109375,18.5625,19.875,13.9375
2082,0.91845703125,0.015380859375,-0.538818359375,18.3125,20,14.0625
2083,0.91845703125,0.015380859375,-0.538818359375,18.3125,20,14.0625
2085,0.917724609375,0.013916015625,-0.557373046875,17.875,20,14.3125
2087,0.917724609375,0.013916015625,-0.557373046875,17.875,20,14.3125
2089,0.917724609375,0.013916015625,-0.557373046875,17.875,20,14.3125
2091,0.919921875,0.00634765625,-0.574951171875,17.4375,20.25,14.1875
2093,0.919921875,0.00634765625,-0.574951171875,17.4375,20.25,14.1875
2095,0.92626953125,-0.000732421875,-0.588134765625,17.25,21.1875,13.8125
2097,0.92626953125,-0.000732421875,-0.588134765625,17.25,21.1875,13.8125
2099,0.930908203125,-0.011474609375,-0.59326171875,17.1875,22.1875,13.5625
2101,0.930908203125,-0.011474609375,-0.59326171875,17.1875,22.1875,13.5625
2103,0.935791015625,-0.02880859375,-0.593994140625,17.9375,23.3125,13.0625
2105,0.935791015625,-0.02880859375,-0.593994140625,17.9375,23.3125,13.0625
2107,0.935791015625,-0.02880859375,-0.593994140625,17.9375,23.3125,13.0625
2109,0.941162109375,-0.04052734375,-0.593017578125,18.25,24.3125,12.5
2111,0.941162109375,-0.04052734375,-0.593017578125,18.25,24.3125,12.5
2113,0.9482421875,-0.04833984375,-0.59228515625,18.125,24.875,11.375
2115,0.9482421875,-0.04833984375,-0.59228515625,18.125,24.875,11.375
2117,0.95751953125,-0.058837890625,-0.58984375,17.6875,24.6875,9.6875
2119,0.95751953125,-0.058837890625,-0.58984375,17.6875,24.6875,9.6875
2120,0.95751953125,-0.058837890625,-0.58984375,17.6875,23.875,8.0625
2123,0.9697265625,-0.072265625,-0.57861328125,16.5625,23.875,8.0625
2125,0.9697265625,-0.072265625,-0.57861328125,0.5625,23,7.0625
2127,0.982177734375,-0.08349609375,-0.56005859375,15.5625,23,7.0625
2129,0.982177734375,-0.08349609375,-0.56005859375,15.5625,23,7.0625
2131,0.99365234375,-0.0869140625,-0.5498046875,14.1875,21.5625,6.8125
2132,0.99365234375,-0.0869140625,-0.5498046875,14.1875,21.5625,6.8125
2134,1.007080078125,-0.084716796875,-0.547607421875,12.0625,18.875,6.5
2136,1.007080078125,-0.084716796875,-0.547607421875,12.0625,18.875,6.5
2138,1.007080078125,-0.084716796875,-0.546875,9.4375,14.6875,5.8125
2140,1.013916015625,-0.08447265625,-0.546875,9.4375,14.6875,5.8125
2142,1.013916015625,-0.08447265625,-0.546875,9.4375,14.6875,5.8125
2145,1.008544921875,-0.08740234375,-0.549072265625,6.5625,9.375,4.875
2147,1.008544921875,-0.08740234375,-0.549072265625,6.5625,9.375,4.875
2149,0.99169921875,-0.091064453125,-0.546630859375,3.4375,3.5,3.4375
2151,0.99169921875,-0.091064453125,-0.546630859375,3.4375,3.5,3.4375
2153,0.966552734375,-0.09326171875,-0.54296875,0.25,-2.4375,1.75
2155,0.966552734375,-0.09326171875,-0.54296875,0.25,-2.4375,1.75
2156,0.93994140625,-0.092041015625,-0.546630859375,-2.75,-8.25,0.0625
2158,0.93994140625,-0.092041015625,-0.546630859375,-2.75,-8.25,0.0625
2160,0.93994140625,-0.092041015625,-0.546630859375,-2.75,-8.25,0.0625
2162,0.910400390625,-0.088623046875,-0.5625,-5.375,-13.4375,-2.25
2164,0.910400390625,-0.088623046875,-0.5625,-5.375,-13.4375,-2.25
2166,0.87744140625,-0.0830078125,-0.5830078125,-7.375,-17.8125,-5.125
2168,0.87744140625,-0.0830078125,-0.5830078125,-7.375,-17.8125,-5.125
2170,0.85107421875,-0.073486328125,-0.594970703125,-9.125,-20.875,-8.5625
2172,0.85107421875,-0.073486328125,-0.594970703125,-9.125,-20.875,-8.5625
2174,0.83544921875,-0.058349609375,-0.605712890625,-10.6875,-23.3125,-12.4375
2176,0.83544921875,-0.058349609375,-0.605712890625,-10.6875,-23.3125,-12.4375
2178,0.83544921875,-0.058349609375,-0.605712890625,-10.6875,-23.3125,-12.4375
2180,0.829833984375,-0.03955078125,-0.62109375,-10.9375,-24.5,-17.125
2182,0.829833984375,-0.03955078125,-0.62109375,-10.9375,-24.5,-17.125
2185,0.82421875,-0.021240234375,-0.62548828125,-9.875,-24.0625,-21.9375
2188,0.828125,-0.008544921875,-0.632080078125,-7.375,-22.125,-27
2190,0.828125,-0.008544921875,-0.632080078125,-7.375,-22.125,-27
2193,0.836669921875,-0.002197265625,-0.63232421875,-4.375,-18.5,-30.875
2195,0.836669921875,-0.002197265625,-0.63232421875,-4.375,-18.5,-30.875
2197,0.852294921875,0.004638671875,-0.61767578125,-1.5625,-14.5625,-34.1875
2199,0.852294921875,0.004638671875,-0.61767578125,-1.5625,-14.5625,-34.1875
2201,0.878662109375,0.01123046875,-0.587646484375,0,-10.6875,-36.6875
2202,0.878662109375,0.01123046875,-0.587646484375,0,-10.6875,-36.6875
2205,0.878662109375,0.01123046875,-0.587646484375,0,-10.6875,-37.5
2207,0.9130859375,0.015625,-0.552001953125,0.75,-7.4375,-37.5
2208,0.9130859375,0.015625,-0.552001953125,0.75,-7.4375,-37.5
2210,0.944580078125,0.0205078125,-0.5107421875,1.3125,-4.6875,-37.1875
2213,0.944580078125,0.0205078125,-0.5107421875,1.3125,-4.6875,-37.1875
2215,0.966064453125,0.02490234375,-0.469970703125,2.125,-2.9375,-36.1875
2217,0.966064453125,0.02490234375,-0.469970703125,2.125,-2.9375,-36.1875
2219,0.987060546875,0.02734375,-0.4345703125,2.4375,-2.625,-34.375
2221,0.987060546875,0.02734375,-0.4345703125,2.4375,-2.625,-34.375
2223,1.004638671875,0.025146484375,-0.400146484375,1.75,-3.8125,-32.0625
2225,1.004638671875,0.025146484375,-0.400146484375,1.75,-3.8125,-32.0625
2227,1.004638671875,0.025146484375,-0.370361328125,0.4375,-6.1875,-29.0625
2229,1.020751953125,0.01513671875,-0.370361328125,0.4375,-6.1875,-29.0625
2231,1.020751953125,0.01513671875,-0.370361328125,0.4375,-6.1875,-25.375
2233,1.0341796875,0.000244140625,-0.349365234375,-1.4375,-10,-25.375
2236,1.0341796875,0.000244140625,-0.34130859375,-3.75,-14.375,-21.5625
2238,1.037353515625,-0.008056640625,-0.34130859375,-3.75,-14.375,-21.5625
2240,1.037353515625,-0.008056640625,-0.34130859375,-3.75,-14.375,-21.5625
2241,1.03173828125,-0.01416015625,-0.34130859375,-6.6875,-18.5,-17.9375
2243,1.03173828125,-0.01416015625,-0.34130859375,-6.6875,-18.5,-17.9375
2246,1.016357421875,-0.022705078125,-0.348388671875,-9.5625,-22.6875,-14.375
2248,1.016357421875,-0.022705078125,-0.348388671875,-9.5625,-22.6875,-14.375
2250,0.992431640625,-0.031005859375,-0.369384765625,-12,-26.5,-10.875
2252,0.992431640625,-0.031005859375,-0.369384765625,-12,-26.5,-10.875
2253,0.992431640625,-0.031005859375,-0.369384765625,-12,-26.5,-8.0625
2255,0.971435546875,-0.039306640625,-0.393310546875,-13.8125,-28.8125,-8.0625
2258,0.971435546875,-0.039306640625,-0.393310546875,-13.8125,-28.8125,-8.0625
2260,0.947998046875,-0.046142578125,-0.41796875,-15.8125,-29.9375,-6.6875
2261,0.947998046875,-0.046142578125,-0.41796875,-15.8125,-29.9375,-6.6875
2263,0.927490234375,-0.0517578125,-0.437255859375,-17.3125,-29.875,-6.4375
2265,0.927490234375,-0.0517578125,-0.437255859375,-17.3125,-29.875,-6.4375
2267,0.91259765625,-0.052978515625,-0.454833984375,-18.25,-28.5625,-7.125
2269,0.91259765625,-0.052978515625,-0.454833984375,-18.25,-28.5625,-7.125
2271,0.91259765625,-0.052978515625,-0.454833984375,-18.4375,-26.6875,-8.4375
2273,0.900634765625,-0.048828125,-0.47509765625,-18.4375,-26.6875,-8.4375
2275,0.900634765625,-0.048828125,-0.47509765625,-18.4375,-26.6875,-8.4375
2277,0.89306640625,-0.044189453125,-0.490234375,-17.375,-23.8125,-11.125
2279,0.89306640625,-0.044189453125,-0.490234375,-17.375,-23.8125,-11.125
2281,0.894775390625,-0.0380859375,-0.4912109375,-15.3125,-20.125,-14.5625
2283,0.894775390625,-0.0380859375,-0.4912109375,-15.3125,-20.125,-14.5625
2285,0.903076171875,-0.02685546875,-0.48046875,-12.5625,-16.25,-18.3125
2287,0.903076171875,-0.02685546875,-0.48046875,-12.5625,-16.25,-18.3125
2289,0.903076171875,-0.014404296875,-0.467529296875,-9.5,-12.9375,-21.9375
2291,0.9169921875,-0.014404296875,-0.467529296875,-9.5,-12.9375,-21.9375
2293,0.9169921875,-0.014404296875,-0.467529296875,-9.5,-12.9375,-21.9375
2295,0.9306640625,-0.003662109375,-0.4560546875,-6.625,-10.6875,-25.0625
2296,0.9306640625,-0.003662109375,-0.4560546875,-6.625,-10.6875,-25.0625
2298,0.9326171875,0.0048828125,-0.445556640625,-4.3125,-9.125,-27.6875
2301,0.9326171875,0.0048828125,-0.445556640625,-4.3125,-9.125,-27.6875
2303,0.927978515625,0.009033203125,-0.4365234375,-2.5,-8.25,-30.25
2305,0.927978515625,0.009033203125,-0.4365234375,-2.5,-8.25,-30.25
2307,0.92919921875,0.007080078125,-0.41650390625,-1.9375,-8.0625,-32.125
2309,0.92919921875,0.007080078125,-0.41650390625,-1.9375,-8.0625,-32.125
2311,0.92919921875,0.007080078125,-0.41650390625,-1.9375,-8.0625,-32.125
2312,0.9443359375,0.009033203125,-0.386962890625,-2.625,-8.6875,-32.6875
2314,0.9443359375,0.009033203125,-0.386962890625,-2.625,-8.6875,-32.6875
2316,0.961669921875,0.0234375,-0.3623046875,-4,-10.4375,-31.625
2318,0.961669921875,0.0234375,-0.3623046875,-4,-10.4375,-31.625
2320,0.96630859375,0.04638671875,-0.34716796875,-5.75,-12.9375,-29.875
2322,0.96630859375,0.04638671875,-0.34716796875,-5.75,-12.9375,-29.875
2324,0.96630859375,0.04638671875,-0.346923828125,-6.875,-16.375,-28.25
2326,0.960693359375,0.067138671875,-0.346923828125,-6.875,-16.375,-28.25
2328,0.960693359375,0.067138671875,-0.346923828125,-6.875,-16.375,-28.25
2330,0.948486328125,0.07861328125,-0.35595703125,-7.25,-20.75,-27.125
2332,0.948486328125,0.07861328125,-0.35595703125,-7.25,-20.75,-27.125
2334,0.928955078125,0.0830078125,-0.37548828125,-7.0625,-24.5,-25.9375
2336,0.928955078125,0.0830078125,-0.37548828125,-7.0625,-24.5,-25.9375
2338,0.928955078125,0.0830078125,-0.401611328125,-7.4375,-26.875,-24.1875
2339,0.907958984375,0.0810546875,-0.401611328125,-7.4375,-26.875,-24.1875
2341,0.907958984375,0.0810546875,-0.401611328125,-7.4375,-26.875,-24.1875
2344,0.89453125,0.0751953125,-0.4150390625,-8.8125,-27.6875,-22.25
2346,0.89453125,0.0751953125,-0.4150390625,-8.8125,-27.6875,-22.25
2348,0.895263671875,0.07666015625,-0.421630859375,-10.875,-26.875,-20.0625
2350,0.895263671875,0.07666015625,-0.421630859375,-10.875,-26.875,-20.0625
2351,0.900146484375,0.0859375,-0.43212890625,-12.4375,-24.625,-17.625
2353,0.900146484375,0.0859375,-0.43212890625,-12.4375,-24.625,-17.625
2355,0.900146484375,0.10400390625,-0.440185546875,-12.8125,-21.625,-15.125
2357,0.901123046875,0.10400390625,-0.440185546875,-12.8125,-21.625,-15.125
2359,0.901123046875,0.10400390625,-0.440185546875,-12.8125,-21.625,-15.125
2361,0.90283203125,0.1171875,-0.4560546875,-12,-18.125,-13.1875
2364,0.90283203125,0.1171875,-0.4560546875,-12,-14.125,-12.9375
2369,0.914794921875,0.120361328125,-0.47216796875,-9.625,-14.125,-12.9375
2370,0.936767578125,0.11669921875,-0.4716796875,-6.25,-8.8125,-13.4375
2372,0.936767578125,0.11669921875,-0.4716796875,-6.25,-8.8125,-13.4375
2374,0.96484375,0.114013671875,-0.4501953125,-3,-2.3125,-14.4375
2376,0.96484375,0.114013671875,-0.4501953125,-3,-2.3125,-14.4375
2378,0.995361328125,0.113037109375,-0.421142578125,0.0625,3.5625,-15.375
2380,0.995361328125,0.113037109375,-0.421142578125,0.0625,3.5625,-15.375
2382,0.995361328125,0.113037109375,-0.421142578125,3.5625,7.6875,-16.5
2384,1.021728515625,0.1103515625,-0.404296875,3.5625,7.6875,-16.5
2386,1.021728515625,0.1103515625,-0.404296875,3.5625,7.6875,-16.5
2388,1.0390625,0.1025390625,-0.382568359375,6.625,10.25,-18
2390,1.0390625,0.1025390625,-0.382568359375,6.625,10.25,-18
2392,1.052490234375,0.090087890625,-0.348388671875,9.125,11.375,-19.9375
2394,1.052490234375,0.090087890625,-0.348388671875,9.125,11.375,-19.9375
2396,1.0654296875,0.08203125,-0.317626953125,10.875,10.625,-21.625
2398,1.0654296875,0.08203125,-0.317626953125,10.875,10.625,-21.625
2400,1.072265625,0.0830078125,-0.29248046875,11.3125,8.125,-22.9375
2402,1.072265625,0.0830078125,-0.29248046875,11.3125,8.125,-22.9375
2404,1.072265625,0.0830078125,-0.29248046875,11.3125,8.125,-22.9375
2406,1.072998046875,0.08251953125,-0.268798828125,10.375,4.375,-23.5625
2408,1.072998046875,0.08251953125,-0.268798828125,10.375,4.375,-23.5625
2409,1.067138671875,0.078125,-0.255126953125,9.3125,0.625,-22.5625
2411,1.067138671875,0.078125,-0.255126953125,9.3125,0.625,-22.5625
2414,1.052734375,0.08251953125,-0.260986328125,7.9375,-2.5,-19.75
2416,1.052734375,0.08251953125,-0.260986328125,7.9375,-2.5,-19.75
2418,1.033935546875,0.08544921875,-0.277099609375,6.3125,-6.3125,-16.5625
2420,1.033935546875,0.08544921875,-0.277099609375,6.3125,-6.3125,-16.5625
2422,1.033935546875,0.08544921875,-0.277099609375,6.3125,-10.5625,-13.25
2424,1.00927734375,0.087646484375,-0.300537109375,4.4375,-10.5625,-13.25
2425,1.00927734375,0.087646484375,-0.300537109375,4.4375,-10.5625,-13.25
2428,0.981689453125,0.09130859375,-0.32861328125,2.0625,-13.875,-10
2430,0.981689453125,0.09130859375,-0.32861328125,2.0625,-13.875,-10
2432,0.9521484375,0.092529296875,-0.345458984375,-0.625,-16.0625,-6.9375
2434,0.9521484375,0.092529296875,-0.345458984375,-0.625,-16.0625,-6.9375
2436,0.92724609375,0.094970703125,-0.357666015625,-3.4375,-17.5625,-3.625
2438,0.92724609375,0.094970703125,-0.357666015625,-3.4375,-17.5625,-3.625
2440,0.906494140625,0.1044921875,-0.370849609375,-5.875,-18.1875,-0.1875
2442,0.906494140625,0.1044921875,-0.370849609375,-5.875,-18.1875,-0.1875
2444,0.8857421875,0.119873046875,-0.393310546875,-7.3125,-18.25,2.375
2446,0.8857421875,0.119873046875,-0.393310546875,-7.3125,-18.25,2.375
2448,0.8857421875,0.119873046875,-0.393310546875,-7.3125,-18.25,2.375
2450,0.865478515625,0.13330078125,-0.423583984375,-7.625,-17.8125,3.875
2452,0.865478515625,0.13330078125,-0.423583984375,-7.625,-17.8125,3.875
2454,0.844482421875,0.142333984375,-0.44921875,-7,-16.5,4.1875
2456,0.844482421875,0.142333984375,-0.44921875,-7,-16.5,4.1875
2459,0.8232421875,0.1494140625,-0.472900390625,-5.75,-14.4375,3.5625
2461,0.8232421875,0.1494140625,-0.472900390625,-5.75,-14.4375,3.5625
2463,0.803955078125,0.15478515625,-0.489501953125,-4,-11.5625,2.6875
2464,0.803955078125,0.15478515625,-0.489501953125,-4,-11.5625,2.6875
2468,0.78564453125,0.158935546875,-0.494873046875,-2.0625,-7.75,2
2471,0.782958984375,0.153564453125,-0.489013671875,-0.875,-4.25,1.625
2473,0.782958984375,0.153564453125,-0.489013671875,-0.875,-4.25,1.625
2475,0.782958984375,0.153564453125,-0.489013671875,-0.875,-4.25,1.625
2476,0.79931640625,0.1357421875,-0.4814453125,0.3125,-0.5625,1.1875
2478,0.79931640625,0.1357421875,-0.4814453125,0.3125,-0.5625,1.1875
2480,0.8125,0.12451171875,-0.454833984375,0.75,2.9375,0.75
2483,0.8125,0.12451171875,-0.454833984375,0.75,2.9375,0.75
2485,0.822021484375,0.12158203125,-0.43701171875,0.75,6.0625,1.1875
2487,0.822021484375,0.12158203125,-0.43701171875,0.75,6.0625,1.1875
2489,0.824951171875,0.1171875,-0.41552734375,0.3125,8.125,1.875
2491,0.824951171875,0.1171875,-0.41552734375,0.3125,8.125,1.875
2493,0.824951171875,0.1171875,-0.41552734375,0.3125,8.125,3.0625
2495,0.834228515625,0.107666015625,-0.393310546875,-0.6875,8.8125,3.0625
2496,0.834228515625,0.107666015625,-0.393310546875,-0.6875,8.8125,3.0625
2499,0.8486328125,0.099365234375,-0.3779296875,-1.8125,8.5,4.0625
2501,0.8486328125,0.099365234375,-0.3779296875,-1.8125,8.5,4.0625
2503,0.857666015625,0.0947265625,-0.362060546875,-2.875,7.5,5.125
2505,0.857666015625,0.0947265625,-0.362060546875,-2.875,7.5,5.125
2507,0.8642578125,0.091064453125,-0.343994140625,-3.75,6.1875,6
2509,0.8642578125,0.091064453125,-0.343994140625,-3.75,6.1875,6
2511,0.873779296875,0.091796875,-0.3330078125,-4.6875,4.5,6.75
2513,0.873779296875,0.091796875,-0.3330078125,-4.6875,4.5,6.75
2515,0.878662109375,0.095458984375,-0.327880859375,-5.25,2.75,7.375
2517,0.878662109375,0.095458984375,-0.327880859375,-5.25,2.75,7.375
2519,0.878662109375,0.095458984375,-0.327880859375,-5.25,2.75,7.375
2521,0.880859375,0.0986328125,-0.323974609375,-5.8125,1.1875,8.0625
2523,0.880859375,0.0986328125,-0.323974609375,-5.8125,1.1875,8.0625
2525,0.88818359375,0.10400390625,-0.324951171875,-6.625,-0.5,9
2527,0.88818359375,0.10400390625,-0.324951171875,-6.625,-0.5,9
2528,0.889404296875,0.110107421875,-0.33251953125,-7.375,-1.8125,10.1875
2531,0.889404296875,0.110107421875,-0.33251953125,-7.375,-1.8125,10.1875
2533,0.87744140625,0.114013671875,-0.339111328125,-7.875,-2.375,11.1875
2535,0.87744140625,0.114013671875,-0.339111328125,-7.875,-2.375,11.1875
2537,0.87744140625,0.114013671875,-0.339111328125,-7.875,-2.375,11.1875
2539,0.867431640625,0.111572265625,-0.349365234375,-7.875,-2.25,12.1875
2541,0.867431640625,0.111572265625,-0.349365234375,-7.875,-2.25,12.1875
2543,0.859619140625,0.105224609375,-0.359619140625,-7.0625,-1.5625,12.5625
2544,0.859619140625,0.105224609375,-0.359619140625,-7.0625,-1.5625,12.5625
2546,0.8486328125,0.097900390625,-0.369873046875,-5.6875,0.1875,12.25
2548,0.8486328125,0.097900390625,-0.369873046875,-5.6875,0.1875,12.25
2550,0.8486328125,0.097900390625,-0.380126953125,-4.0625,2.5,11.1875
2553,0.836669921875,0.091064453125,-0.380126953125,-4.0625,2.5,11.1875
2555,0.826416015625,0.07275390625,-0.385009765625,-2.375,5.5,9.125
2558,0.826416015625,0.07275390625,-0.385009765625,-2.375,5.5,9.125
2560,0.821044921875,0.051513671875,-0.38720703125,-0.875,8.875,6.1875
2561,0.821044921875,0.051513671875,-0.38720703125,-0.875,8.875,6.1875
2563,0.821044921875,0.051513671875,-0.38720703125,-0.875,8.875,2.625
2565,0.82470703125,0.030517578125,-0.37890625,0.0625,11.6875,2.625
2568,0.82470703125,0.030517578125,-0.37890625,0.0625,11.6875,2.625
2569,0.832763671875,0.01953125,-0.357421875,0.8125,14.75,-0.8125
2571,0.832763671875,0.01953125,-0.357421875,0.8125,14.75,-0.8125
2573,0.83837890625,0.025146484375,-0.34033203125,1.4375,17.5625,-3.6875
2576,0.83837890625,0.025146484375,-0.34033203125,1.4375,17.5625,-3.6875
2578,0.843994140625,0.03564453125,-0.330322265625,2.1875,19.8125,-6
2579,0.843994140625,0.03564453125,-0.330322265625,2.1875,19.8125,-6
2581,0.845703125,0.0498046875,-0.317626953125,3.25,21,-8.0625
2583,0.845703125,0.0498046875,-0.317626953125,3.25,21,-8.0625
2585,0.845703125,0.0498046875,-0.317626953125,3.25,21,-8.0625
2587,0.853271484375,0.0615234375,-0.300048828125,4.0625,21.5,-10.25
2589,0.853271484375,0.0615234375,-0.300048828125,4.0625,21.5,-10.25
2592,0.86572265625,0.068115234375,-0.28125,3.8125,21.4375,-11.5625
2594,0.86572265625,0.068115234375,-0.28125,3.8125,21.4375,-11.5625
2595,0.8740234375,0.07080078125,-0.2626953125,1.8125,20.5,-11.5
2597,0.8740234375,0.07080078125,-0.2626953125,1.8125,20.5,-11.5
2600,0.875244140625,0.07177734375,-0.24169921875,-0.8125,19.75,-9.6875
2602,0.875244140625,0.07177734375,-0.24169921875,-0.8125,19.75,-9.6875
2604,0.875732421875,0.080810546875,-0.235595703125,-3.625,20.0625,-6.3125
2606,0.875732421875,0.080810546875,-0.235595703125,-3.625,20.0625,-6.3125
2608,0.87353515625,0.096923828125,-0.2392578125,-5.6875,20.4375,-2.0625
2610,0.87353515625,0.096923828125,-0.2392578125,-5.6875,20.4375,-2.0625
2612,0.87353515625,0.096923828125,-0.2392578125,-5.6875,20.4375,-2.0625
2614,0.87109375,0.112548828125,-0.246337890625,-7.5,20.3125,2
2616,0.87109375,0.112548828125,-0.246337890625,-7.5,20.3125,2
2618,0.866943359375,0.121337890625,-0.251220703125,-8.625,20,5.375
2619,0.866943359375,0.121337890625,-0.251220703125,-8.625,20,5.375
2622,0.862060546875,0.120849609375,-0.253173828125,-9.4375,19.8125,7.6875
2624,0.862060546875,0.120849609375,-0.253173828125,-9.4375,19.8125,7.6875
2626,0.859375,0.1181640625,-0.252685546875,-10.125,19.9375,9.3125
2628,0.859375,0.1181640625,-0.252685546875,-10.125,19.9375,9.3125
2630,0.859375,0.1181640625,-0.252685546875,-10.125,19.9375,9.3125
2632,0.86181640625,0.116455078125,-0.255615234375,-10.0625,20.6875,10.375
2634,0.86181640625,0.116455078125,-0.255615234375,-10.0625,20.6875,10.375
2636,0.8623046875,0.117919921875,-0.255126953125,-9.3125,22.0625,10.75
2637,0.8623046875,0.117919921875,-0.255126953125,-9.3125,22.0625,10.75
2639,0.861328125,0.109375,-0.24658203125,-7.8125,23.875,9.9375
2641,0.861328125,0.109375,-0.24658203125,-7.8125,23.875,9.9375
2644,0.8642578125,0.09423828125,-0.23779296875,-6.1875,25.6875,8.75
2646,0.8642578125,0.09423828125,-0.23779296875,-6.1875,25.6875,8.75
2648,0.8642578125,0.09423828125,-0.23779296875,-6.1875,25.6875,7.5625
2650,0.875244140625,0.077880859375,-0.21923828125,-4.8125,28,7.5625
2652,0.875244140625,0.077880859375,-0.21923828125,-4.8125,28,7.5625
2654,0.895751953125,0.06396484375,-0.1904296875,-4.1875,29.9375,5.8125
2656,0.895751953125,0.06396484375,-0.1904296875,-4.1875,29.9375,5.8125
2657,0.9189453125,0.056396484375,-0.159912109375,-4,30.875,3.875
2660,0.9189453125,0.056396484375,-0.159912109375,-4,30.875,3.875
2663,0.9345703125,0.0556640625,-0.1435546875,-3.375,31,1.5
2666,0.94384765625,0.059814453125,-0.1337890625,-2.75,30.0625,-1.0625
2668,0.94384765625,0.059814453125,-0.1337890625,-2.75,30.0625,-1.0625
2670,0.94482421875,0.0634765625,-0.13232421875,-1.9375,28.5625,-3.0625
2672,0.94482421875,0.0634765625,-0.13232421875,-1.9375,28.5625,-3.0625
2674,0.94482421875,0.0634765625,-0.13232421875,-1.9375,28.5625,-3.0625
2676,0.938720703125,0.068603515625,-0.13671875,-1,26.6875,-5.375
2678,0.938720703125,0.068603515625,-0.13671875,-1,26.6875,-5.375
2680,0.9287109375,0.07373046875,-0.14501953125,-0.3125,25.1875,-7.125
2682,0.9287109375,0.07373046875,-0.14501953125,-0.3125,25.1875,-7.125
2684,0.91845703125,0.0791015625,-0.1513671875,-0.3125,24.5,-8.375
2686,0.91845703125,0.0791015625,-0.1513671875,-0.3125,24.5,-8.375
2688,0.90869140625,0.0830078125,-0.150146484375,-1,23.875,-8.9375
2690,0.90869140625,0.0830078125,-0.150146484375,-1,23.875,-8.9375
2692,0.90869140625,0.0859375,-0.1484375,-2.5,23.25,-8.625
2694,0.90478515625,0.0859375,-0.1484375,-2.5,23.25,-8.625
2696,0.90478515625,0.0859375,-0.1484375,-2.5,23.25,-8.625
2698,0.907470703125,0.090576171875,-0.146484375,-4.5,22.6875,-7.3125
2700,0.907470703125,0.090576171875,-0.146484375,-4.5,22.6875,-7.3125
2702,0.9013671875,0.100341796875,-0.146484375,-6.1875,23.125,-4.9375
2704,0.9013671875,0.100341796875,-0.146484375,-6.1875,23.125,-4.9375
2705,0.888671875,0.112548828125,-0.150390625,-7.0625,24.5625,-2.1875
2707,0.888671875,0.112548828125,-0.150390625,-7.0625,24.5625,-2.1875
2709,0.888671875,0.112548828125,-0.150390625,-7.0625,24.5625,-2.1875
2711,0.87744140625,0.1181640625,-0.1591796875,-7.875,25.9375,0.875
2714,0.87744140625,0.1181640625,-0.1591796875,-7.875,25.9375,0.875
2716,0.876220703125,0.123779296875,-0.165771484375,-8.5625,27.0625,3.5625
2718,0.876220703125,0.123779296875,-0.165771484375,-8.5625,27.0625,3.5625
2719,0.878662109375,0.130615234375,-0.166748046875,-9.5625,28.25,6.4375
2721,0.878662109375,0.130615234375,-0.166748046875,-9.5625,28.25,6.4375
2723,0.875732421875,0.13427734375,-0.160888671875,-10.5625,29.625,8.9375
2725,0.875732421875,0.13427734375,-0.160888671875,-10.5625,29.625,8.9375
2727,0.875732421875,0.13427734375,-0.160888671875,-10.5625,29.625,8.9375
2729,0.87353515625,0.134765625,-0.150634765625,-11.1875,30.3125,9.875
2731,0.87353515625,0.134765625,-0.150634765625,-11.1875,30.3125,9.875
2733,0.873291015625,0.12744140625,-0.135009765625,-10.4375,30.125,9.5625
2736,0.873291015625,0.12744140625,-0.135009765625,-10.4375,30.125,9.5625
2737,0.8740234375,0.12744140625,-0.123046875,-8.5,29.5,7.875
2739,0.8740234375,0.12744140625,-0.123046875,-8.5,29.5,7.875
2741,0.872802734375,0.134765625,-0.1201171875,-6.125,28.625,5.8125
2743,0.872802734375,0.134765625,-0.1201171875,-6.125,28.625,5.8125
2745,0.86962890625,0.14208984375,-0.12744140625,-3.75,27.3125,3.0625
2747,0.86962890625,0.14208984375,-0.12744140625,-3.75,27.3125,3.0625
2749,0.86962890625,0.14208984375,-0.12744140625,-3.75,27.3125,3.0625
2751,0.858642578125,0.14501953125,-0.139404296875,-1,25.8125,-0.75
2753,0.858642578125,0.14501953125,-0.139404296875,-1,25.8125,-0.75
2755,0.839111328125,0.139892578125,-0.147216796875,1.4375,24.25,-4.625
2757,0.839111328125,0.139892578125,-0.147216796875,1.4375,24.25,-4.625
2759,0.827880859375,0.127197265625,-0.1484375,2.75,23.1875,-8.625
2761,0.827880859375,0.127197265625,-0.1484375,2.75,23.1875,-8.625
2763,0.823974609375,0.1201171875,-0.14990234375,3.75,23.0625,-11.3125
2765,0.823974609375,0.1201171875,-0.14990234375,3.75,23.0625,-11.3125
2768,0.817138671875,0.1220703125,-0.154541015625,4.4375,23.3125,-13.4375
2770,0.817138671875,0.1220703125,-0.154541015625,4.4375,23.3125,-13.4375
2772,0.817138671875,0.1220703125,-0.154541015625,4.4375,23.8125,-15.3125
2774,0.802978515625,0.12841796875,-0.168212890625,4.875,23.8125,-15.3125
2776,0.802978515625,0.12841796875,-0.168212890625,4.875,23.8125,-15.3125
2777,0.787109375,0.135498046875,-0.1748046875,5.125,24.8125,-16.6875
2780,0.787109375,0.135498046875,-0.1748046875,5.125,24.8125,-16.6875
2782,0.787841796875,0.14208984375,-0.1767578125,5.25,26.3125,-17
2784,0.787841796875,0.14208984375,-0.1767578125,5.25,26.3125,-17
2786,0.80126953125,0.148193359375,-0.178955078125,4.9375,28.9375,-16.8125
2788,0.80126953125,0.148193359375,-0.178955078125,4.9375,28.9375,-16.8125
2790,0.80859375,0.1572265625,-0.17236328125,4,31.6875,-15.6875
2792,0.80859375,0.1572265625,-0.17236328125,4,31.6875,-15.6875
2793,0.80859375,0.1572265625,-0.17236328125,4,31.6875,-15.6875
2795,0.807861328125,0.163330078125,-0.1552734375,3.1875,34.375,-13.75
2798,0.807861328125,0.163330078125,-0.1552734375,3.1875,34.375,-13.75
2799,0.8046875,0.171630859375,-0.147216796875,3.1875,37.25,-11.6875
2802,0.8046875,0.171630859375,-0.147216796875,3.1875,37.25,-11.6875
2804,0.8037109375,0.1787109375,-0.132568359375,3.3125,39.625,-9.9375
2806,0.8037109375,0.1787109375,-0.132568359375,3.3125,39.625,-9.9375
2808,0.814208984375,0.186767578125,-0.11376953125,3.0625,41.5,-8.375
2810,0.814208984375,0.186767578125,-0.11376953125,3.0625,41.5,-8.375
2812,0.814208984375,0.186767578125,-0.11376953125,3.0625,43.0625,-6.625
2813,0.83154296875,0.195556640625,-0.094482421875,3.0625,43.0625,-6.625
2815,0.83154296875,0.195556640625,-0.094482421875,3.0625,43.0625,-6.625
2817,0.8447265625,0.199462890625,-0.076171875,3.125,44.3125,-5.25
2819,0.8447265625,0.199462890625,-0.076171875,3.125,44.3125,-5.25
2821,0.8544921875,0.18994140625,-0.049072265625,3.875,44.9375,-4.4375
2824,0.8544921875,0.18994140625,-0.049072265625,3.875,44.9375,-4.4375
2825,0.864013671875,0.1787109375,-0.022216796875,5.3125,45.3125,-4.1875
2827,0.864013671875,0.1787109375,-0.022216796875,5.3125,45.3125,-4.1875
2829,0.864013671875,0.1787109375,-0.022216796875,5.3125,44.625,-4.75
2832,0.874755859375,0.1630859375,-0.000244140625,7,44.625,-4.75
2833,0.874755859375,0.1630859375,-0.000244140625,7,44.625,-4.75
2836,0.888671875,0.151123046875,0.0166015625,7.875,42.6875,-6.4375
2839,0.900390625,0.143798828125,0.02783203125,8.0625,39.9375,-8.75
2841,0.900390625,0.143798828125,0.02783203125,8.0625,39.9375,-8.75
2843,0.906494140625,0.1357421875,0.031005859375,8.375,36.9375,-11.8125
2845,0.906494140625,0.1357421875,0.031005859375,8.375,36.9375,-11.8125
2848,0.906005859375,0.126708984375,0.022705078125,8.8125,34.0625,-15
2850,0.906005859375,0.126708984375,0.022705078125,8.8125,34.0625,-15
2852,0.8994140625,0.118896484375,0.013427734375,9.125,31.5,-18.1875
2854,0.8994140625,0.118896484375,0.013427734375,9.125,31.5,-18.1875
2856,0.897705078125,0.10986328125,0.01806640625,8.25,29.375,-21.0625
2858,0.897705078125,0.10986328125,0.01806640625,8.25,29.375,-21.0625
2860,0.897705078125,0.10986328125,0.01806640625,8.25,29.375,-21.0625
2862,0.91015625,0.1123046875,0.02099609375,6.5,27.5,-23.375
2864,0.91015625,0.1123046875,0.02099609375,6.5,27.5,-23.375
2866,0.918701171875,0.12744140625,0.015380859375,4.8125,26.375,-24.375
2868,0.918701171875,0.12744140625,0.015380859375,4.8125,26.375,-24.375
2870,0.9169921875,0.1494140625,0.01123046875,3.625,26.0625,-24.5625
2873,0.9169921875,0.1494140625,0.01123046875,3.625,26.0625,-24.5625
2875,0.91015625,0.17041015625,0.010498046875,3.625,26.75,-24.5
2877,0.91015625,0.17041015625,0.010498046875,3.625,26.75,-24.5
2879,0.90966796875,0.187744140625,0.01708984375,4.3125,27.4375,-24.25
2881,0.90966796875,0.187744140625,0.01708984375,4.3125,27.4375,-24.25
2883,0.91650390625,0.202392578125,0.02490234375,5.4375,28.1875,-23.75
2884,0.91650390625,0.202392578125,0.02490234375,5.4375,28.1875,-23.75
2886,0.91650390625,0.202392578125,0.02490234375,5.4375,28.1875,-23.75
2888,0.929931640625,0.199951171875,0.0400390625,6.9375,28.875,-23.3125
2890,0.929931640625,0.199951171875,0.0400390625,6.9375,28.875,-23.3125
2892,0.943115234375,0.192138671875,0.060302734375,8.625,29.625,-22.625
2895,0.943115234375,0.192138671875,0.060302734375,8.625,29.625,-22.625
2896,0.950439453125,0.183837890625,0.074951171875,9.625,30.875,-21.75
2898,0.950439453125,0.183837890625,0.074951171875,9.625,30.875,-21.75
2900,0.954345703125,0.175048828125,0.08544921875,9.875,31.875,-20.5625
2902,0.954345703125,0.175048828125,0.08544921875,9.875,31.875,-20.5625
2904,0.954345703125,0.175048828125,0.08544921875,9.875,31.875,-20.5625
2907,0.959228515625,0.17138671875,0.094970703125,9.4375,32.125,-19.625
2909,0.96533203125,0.173828125,0.107177734375,8.5625,32.25,-19.375
2911,0.96533203125,0.173828125,0.107177734375,8.5625,32.25,-19.375
2914,0.96533203125,0.176513671875,0.123779296875,8.125,31.875,-20.125
2916,0.970458984375,0.176513671875,0.123779296875,8.125,31.875,-20.125
2918,0.970458984375,0.176513671875,0.186279296875,8.25,31.1875,-21.125
2920,0.976806640625,0.17724609375,0.1474609375,8.25,31.1875,-21.125
2922,0.976806640625,0.17724609375,0.1474609375,8.25,31.1875,-21.125
2923,0.990966796875,0.17626953125,0.173828125,8.75,29.625,-22.4375
2925,0.990966796875,0.17626953125,0.173828125,8.75,29.625,-22.4375
2928,1.008544921875,0.1796875,0.1943359375,9,27.1875,-24.125
2929,1.008544921875,0.1796875,0.1943359375,9,27.1875,-24.125
2931,1.0224609375,0.186279296875,0.20654296875,8.9375,24.5625,-25.4375
2933,1.0224609375,0.186279296875,0.20654296875,8.9375,24.5625,-25.4375
2935,1.0224609375,0.186279296875,0.20654296875,8.9375,24.5625,-25.4375
2937,1.031494140625,0.187255859375,0.21484375,9.125,21.75,-26.625
2940,1.031494140625,0.187255859375,0.21484375,9.125,21.75,-26.625
2942,1.040283203125,0.181396484375,0.220947265625,9.6875,19.1875,-27.5
2945,1.051025390625,0.17529296875,0.225341796875,10.25,16.75,-28.1875
2947,1.051025390625,0.17529296875,0.225341796875,10.25,16.75,-28.1875
2949,1.051025390625,0.17529296875,0.225341796875,10.3125,14.875,-28.3125
2951,1.06201171875,0.170654296875,0.23046875,10.3125,14.875,-28.3125
2953,1.06201171875,0.170654296875,0.23046875,10.3125,14.875,-28.3125
2955,1.076171875,0.166015625,0.235595703125,10.125,13.4375,-27.8125
2957,1.076171875,0.166015625,0.235595703125,10.125,13.4375,-27.8125
2959,1.0947265625,0.159423828125,0.241943359375,9.875,12.1875,-26.875
2960,1.0947265625,0.159423828125,0.241943359375,9.875,12.1875,-26.875
2963,1.1083984375,0.154541015625,0.248291015625,10,10.75,-25.625
2965,1.1083984375,0.154541015625,0.248291015625,10,10.75,-25.625
2967,1.118896484375,0.15185546875,0.255126953125,10.125,8.875,-24.5625
2969,1.118896484375,0.15185546875,0.255126953125,10.125,8.875,-24.5625
2971,1.118896484375,0.15185546875,0.255126953125,10.0625,6.75,-23.375
2973,1.12744140625,0.145751953125,0.257080078125,10.0625,6.75,-23.375
2975,1.12744140625,0.145751953125,0.257080078125,10.0625,6.75,-23.375
2977,1.130859375,0.136474609375,0.2578125,9.625,4.3125,-21.5625
2979,1.130859375,0.136474609375,0.2578125,9.625,4.3125,-21.5625
2981,1.13525390625,0.127685546875,0.263671875,8.125,2.4375,-19.625
2983,1.13525390625,0.127685546875,0.263671875,8.125,2.4375,-19.625
2985,1.1435546875,0.122314453125,0.2734375,6.25,0.75,-17.0625
2987,1.1435546875,0.122314453125,0.2734375,6.25,0.75,-17.0625
2989,1.15380859375,0.117431640625,0.284912109375,4,-1,-14.1875
2991,1.15380859375,0.117431640625,0.284912109375,4,-1,-14.1875
2993,1.15380859375,0.117431640625,0.284912109375,4,-3.1875,-11
2995,1.1650390625,0.116943359375,0.29150390625,1.625,-3.1875,-11
2997,1.1650390625,0.116943359375,0.29150390625,1.625,-3.1875,-11
2999,1.17529296875,0.12158203125,0.29248046875,-0.5,-5.375,-8.25
3001,1.17529296875,0.12158203125,0.29248046875,-0.5,-5.375,-8.25
3003,1.176513671875,0.130615234375,0.289794921875,-2.1875,-8.1875,-6.5
3005,1.176513671875,0.130615234375,0.289794921875,-2.1875,-8.1875,-6.5
3007,1.169189453125,0.1416015625,0.28662109375,-3.6875,-11.9375,-5.3125
3009,1.169189453125,0.1416015625,0.28662109375,-3.6875,-11.9375,-5.3125
3011,1.15966796875,0.146240234375,0.2861328125,-5.0625,-16.0625,-4.5625
3013,1.15966796875,0.146240234375,0.2861328125,-5.0625,-16.0625,-4.5625
3015,1.15966796875,0.146240234375,0.2861328125,-5.0625,-16.0625,-4.5625
3017,1.154541015625,0.152099609375,0.27734375,-5.75,-20.25,-4.25
3019,1.154541015625,0.152099609375,0.27734375,-5.75,-20.25,-4.25
3021,1.150146484375,0.164306640625,0.2568359375,-6.375,-24.1875,-3.375
3023,1.150146484375,0.164306640625,0.2568359375,-6.375,-24.1875,-3.375
3025,1.137451171875,0.175537109375,0.23046875,-7.0625,-28.375,-2.5625
3027,1.137451171875,0.175537109375,0.23046875,-7.0625,-28.375,-2.5625
3028,1.137451171875,0.175537109375,0.23046875,-7.0625,-28.375,-2.5625
3030,1.119140625,0.1826171875,0.2021484375,-8,-32.5,-1.625
3032,1.119140625,0.1826171875,0.2021484375,-8,-32.5,-1.625
3035,1.09814453125,0.190185546875,0.173828125,-8.875,-35.6875,-1
3037,1.09814453125,0.190185546875,0.173828125,-8.875,-35.6875,-1
3038,1.074951171875,0.1962890625,0.14208984375,-9.25,-38.0625,-0.5625
3040,1.074951171875,0.1962890625,0.14208984375,-9.25,-38.0625,-0.5625
3042,1.052001953125,0.203857421875,0.11181640625,-9.1875,-39.625,-0.25
3044,1.052001953125,0.203857421875,0.11181640625,-9.1875,-39.625,-0.25
3047,1.032470703125,0.218017578125,0.083251953125,-9.125,-40.375,0.3125
3051,1.032470703125,0.218017578125,0.083251953125,-9.125,-40.375,0.3125
3052,1.012451171875,0.234619140625,0.055908203125,-8.9375,-40.3125,0.75
3055,1.012451171875,0.234619140625,0.055908203125,-8.9375,-40.3125,0.75
3057,0.995361328125,0.25048828125,0.036865234375,-8.1875,-39.8125,1.1875
3059,0.995361328125,0.25048828125,0.036865234375,-8.1875,-39.8125,1.1875
3061,0.976318359375,0.258544921875,0.02880859375,-7.0625,-38.6875,1.625
3063,0.976318359375,0.258544921875,0.02880859375,-7.0625,-38.6875,1.625
3066,0.966796875,0.259765625,0.025390625,-5.4375,-37.3125,2
3068,0.966796875,0.259765625,0.025390625,-5.4375,-37.3125,2
3069,0.966064453125,0.26171875,0.02392578125,-3.4375,-35.8125,2.4375
3072,0.966064453125,0.26171875,0.02392578125,-3.4375,-35.8125,2.4375
3074,0.965576171875,0.268310546875,0.027099609375,-1.875,-34,2.9375
3076,0.965576171875,0.268310546875,0.027099609375,-1.875,-34,2.9375
3078,0.96533203125,0.27978515625,0.030029296875,-1.1875,-32.5625,4.625
3080,0.96533203125,0.27978515625,0.030029296875,-1.1875,-32.5625,4.625
3083,0.9658203125,0.28662109375,0.031982421875,-0.625,-31.5625,7.3125
3086,0.9658203125,0.28662109375,0.031982421875,-0.625,-31.5625,7.3125
3088,0.967529296875,0.28466796875,0.033447265625,-0.1875,-31.1875,10.75
3090,0.967529296875,0.28466796875,0.033447265625,-0.1875,-31.1875,10.75
3092,0.974853515625,0.276123046875,0.0302734375,-0.3125,-31.5625,14.9375
3094,0.974853515625,0.276123046875,0.0302734375,-0.3125,-31.5625,14.9375
3096,0.981201171875,0.265380859375,0.021728515625,-1.625,-32.5625,20.1875
3098,0.981201171875,0.265380859375,0.021728515625,-1.625,-32.5625,20.1875
3100,0.977294921875,0.254150390625,0.009765625,-4.0625,-33.75,26
3102,0.977294921875,0.254150390625,0.009765625,-4.0625,-33.75,26
3104,0.977294921875,0.2451171875,-0.003662109375,-7,-34.4375,31.625
3106,0.961181640625,0.2451171875,-0.003662109375,-7,-34.4375,31.625
3108,0.961181640625,0.2451171875,-0.003662109375,-7,-34.3125,36.5625
3110,0.941162109375,0.23779296875,-0.019287109375,-10.0625,-34.3125,36.5625
3112,0.941162109375,0.23779296875,-0.019287109375,-10.0625,-34.3125,36.5625
3115,0.924072265625,0.22802734375,-0.035400390625,-12.25,-33.75,40.75
3117,0.924072265625,0.22802734375,-0.035400390625,-12.25,-33.75,40.75
3120,0.909912109375,0.219482421875,-0.048828125,-13.75,-33,43.5625
3122,0.909912109375,0.219482421875,-0.048828125,-14.9375,-31.0625,45.25
3123,0.900634765625,0.218017578125,-0.05810546875,-14.9375,-31.0625,45.25
3125,0.900634765625,0.218017578125,-0.05810546875,-14.9375,-31.0625,45.25
3127,0.89599609375,0.218017578125,-0.05810546875,-15.0625,-28.375,45.6875
3129,0.89599609375,0.218017578125,-0.05810546875,-15.0625,-28.375,45.6875
3132,0.89208984375,0.215087890625,-0.05126953125,-14,-25.625,44.5625
3134,0.89208984375,0.215087890625,-0.05126953125,-14,-25.625,44.5625
3136,0.888671875,0.21142578125,-0.047119140625,-12.0625,-22.75,42.6875
3138,0.888671875,0.21142578125,-0.047119140625,-12.0625,-22.75,42.6875
3140,0.88818359375,0.208984375,-0.04248046875,-9.8125,-20.125,39.75
3141,0.88818359375,0.208984375,-0.04248046875,-9.8125,-20.125,39.75
3143,0.88818359375,0.208984375,-0.04248046875,-9.8125,-20.125,39.75
3145,0.8916015625,0.206298828125,-0.03271484375,-7.8125,-17.9375,36.375
3147,0.8916015625,0.206298828125,-0.03271484375,-7.8125,-17.9375,36.375
3149,0.90185546875,0.202392578125,-0.023193359375,-5.6875,-16.3125,33
3152,0.90185546875,0.202392578125,-0.023193359375,-5.6875,-16.3125,33
3154,0.92041015625,0.195556640625,-0.016845703125,-3.625,-15.6875,29.5625
3156,0.92041015625,0.195556640625,-0.016845703125,-3.625,-15.6875,29.5625
3158,0.9365234375,0.1865234375,-0.015869140625,-2.125,-16.125,27.0625
3160,0.9365234375,0.1865234375,-0.015869140625,-2.125,-16.125,27.0625
3162,0.940185546875,0.17578125,-0.0224609375,-1.6875,-17.125,25.1875
3164,0.940185546875,0.17578125,-0.0224609375,-1.6875,-17.125,25.1875
3166,0.940185546875,0.17578125,-0.0224609375,-1.6875,-17.125,25.1875
3168,0.933349609375,0.162841796875,-0.026611328125,-2.25,-17.875,23.75
3169,0.933349609375,0.162841796875,-0.026611328125,-2.25,-17.875,23.75
3171,0.923583984375,0.154541015625,-0.01513671875,-3.1875,-17.8125,22.6875
3173,0.923583984375,0.154541015625,-0.01513671875,-3.1875,-17.8125,22.6875
3176,0.926513671875,0.152587890625,-0.0107421875,-3.9375,-18.1875,22.75
3178,0.926513671875,0.152587890625,-0.0107421875,-3.9375,-18.1875,22.75
3180,0.93701171875,0.15625,-0.011962890625,-5.25,-18.8125,24.125
3181,0.93701171875,0.15625,-0.011962890625,-5.25,-18.8125,24.125
3183,0.93701171875,0.15625,-0.011962890625,-5.25,-18.8125,24.125
3185,0.94287109375,0.154541015625,-0.008056640625,-6.6875,-19.1875,26.125
3187,0.94287109375,0.154541015625,-0.008056640625,-6.6875,-19.1875,26.125
3189,0.937255859375,0.141845703125,-0.00341796875,-8.6875,-19.5625,28
3191,0.937255859375,0.141845703125,-0.00341796875,-8.6875,-19.5625,28
3193,0.926513671875,0.12744140625,0.0029296875,-10.875,-19.25,29.375
3195,0.926513671875,0.12744140625,0.0029296875,-10.875,-19.25,29.375
3197,0.910888671875,0.117431640625,0.00927734375,-13.125,-18.6875,30.5625
3199,0.910888671875,0.117431640625,0.00927734375,-13.125,-18.6875,30.5625
3201,0.910888671875,0.117431640625,0.00927734375,-13.125,-17.625,31.5625
3203,0.894287109375,0.1142578125,0.008544921875,-15.25,-17.625,31.5625
3205,0.894287109375,0.1142578125,0.008544921875,-15.25,-17.625,31.5625
3207,0.881103515625,0.11328125,0.00830078125,-17,-16.0625,32.4375
3209,0.881103515625,0.11328125,0.00830078125,-17,-16.0625,32.4375
3211,0.875244140625,0.11474609375,0.005859375,-18.3125,-14.5625,32.625
3213,0.875244140625,0.11474609375,0.005859375,-18.3125,-14.5625,32.625
3215,0.875244140625,0.120361328125,0.00927734375,-18.6875,-13.5,31.75
3217,0.875732421875,0.120361328125,0.00927734375,-18.6875,-13.5,31.75
3219,0.875732421875,0.127685546875,0.013916015625,-17.875,-13,29.5
3221,0.87939453125,0.127685546875,0.013916015625,-17.875,-13,29.5
3223,0.87939453125,0.127685546875,0.013916015625,-17.875,-13,29.5
3225,0.885986328125,0.135498046875,0.015869140625,-16.3125,-12.6875,25.875
3227,0.885986328125,0.135498046875,0.015869140625,-16.3125,-12.6875,25.875
3229,0.892333984375,0.142822265625,0.013671875,-14.5,-12.625,22.125
3231,0.892333984375,0.142822265625,0.013671875,-14.5,-12.625,22.125
3232,0.892333984375,0.142822265625,0.005859375,-12.75,-13,18.125
3234,0.905029296875,0.146484375,0.005859375,-12.75,-13,18.125
3236,0.905029296875,0.146484375,0.005859375,-12.75,-13,18.125
3238,0.914306640625,0.14599609375,-0.003173828125,-10.6875,-14.375,13.8125
3241,0.914306640625,0.14599609375,-0.003173828125,-10.6875,-14.375,13.8125
3242,0.915771484375,0.142333984375,-0.016357421875,-8.25,-15.625,9.375
3244,0.915771484375,0.142333984375,-0.016357421875,-8.25,-15.625,9.375
3246,0.909423828125,0.147216796875,-0.033447265625,-6.4375,-16.1875,5.1875
3248,0.909423828125,0.147216796875,-0.033447265625,-6.4375,-16.1875,5.1875
3250,0.9033203125,0.1552734375,-0.046142578125,-5.4375,-16.125,1.6875
3252,0.9033203125,0.1552734375,-0.046142578125,-5.4375,-16.125,1.6875
3254,0.9033203125,0.1552734375,-0.046142578125,-5.4375,-16.125,1.6875
3256,0.899658203125,0.164794921875,-0.056640625,-4.4375,-15.5625,-0.875
3258,0.899658203125,0.164794921875,-0.056640625,-4.4375,-15.5625,-0.875
3260,0.894775390625,0.17626953125,-0.071044921875,-3.4375,-15.0625,-2.5625
3262,0.894775390625,0.17626953125,-0.071044921875,-3.4375,-15.0625,-2.5625
3264,0.889892578125,0.184326171875,-0.086669921875,-2.875,-14.4375,-3
3266,0.889892578125,0.184326171875,-0.086669921875,-2.875,-14.4375,-3
3268,0.890380859375,0.19091796875,-0.09521484375,-2.6875,-13.1875,-2.375
3270,0.890380859375,0.19091796875,-0.09521484375,-2.6875,-13.1875,-2.375
3272,0.890380859375,0.19091796875,-0.09521484375,-2.6875,-13.1875,-2.375
3274,0.8896484375,0.1943359375,-0.09814453125,-2.9375,-11.375,-0.875
3276,0.8896484375,0.1943359375,-0.09814453125,-2.9375,-11.375,-0.875
3278,0.881591796875,0.19482421875,-0.095703125,-3.5625,-8.625,1.25
3280,0.881591796875,0.19482421875,-0.095703125,-3.5625,-8.625,1.25
3281,0.8740234375,0.185302734375,-0.086669921875,-4.25,-5.5625,3.6875
3284,0.8740234375,0.185302734375,-0.086669921875,-4.25,-5.5625,3.6875
3286,0.871826171875,0.166748046875,-0.078369140625,-5,-2.3125,6.375
3288,0.871826171875,0.166748046875,-0.078369140625,-5,-2.3125,6.375
3290,0.871826171875,0.166748046875,-0.078369140625,-5,-2.3125,6.375
3291,0.877685546875,0.143310546875,-0.06640625,-6,0.625,8.75
3293,0.877685546875,0.143310546875,-0.06640625,-6,0.625,8.75
3295,0.8896484375,0.126708984375,-0.053466796875,-8.0625,3.25,11.25
3298,0.8896484375,0.126708984375,-0.053466796875,-8.0625,3.25,11.25
3300,0.904541015625,0.12109375,-0.044189453125,-11,4.875,13.375
3302,0.904541015625,0.12109375,-0.044189453125,-11,4.875,13.375
3304,0.910400390625,0.1220703125,-0.040283203125,-13.9375,5.5625,15
3306,0.910400390625,0.1220703125,-0.040283203125,-13.9375,5.5625,15
3308,0.906005859375,0.12646484375,-0.039306640625,-16.25,6,16.0625
3310,0.906005859375,0.12646484375,-0.039306640625,-16.25,6,16.0625
3312,0.906005859375,0.12646484375,-0.0400390625,-17.5,6.5625,16
3314,0.9013671875,0.134765625,-0.0400390625,-17.5,6.5625,16
3316,0.9013671875,0.134765625,-0.0400390625,-17.5,6.5625,16
3318,0.9140625,0.153076171875,-0.049072265625,-16.6875,6.5,15.0625
3320,0.9140625,0.153076171875,-0.049072265625,-16.6875,6.5,15.0625
3322,0.938720703125,0.1708984375,-0.060546875,-14.1875,5.625,13.25
3324,0.938720703125,0.1708984375,-0.060546875,-14.1875,5.625,13.25
3326,0.958984375,0.183349609375,-0.071044921875,-10.875,3.5,10.1875
3328,0.958984375,0.183349609375,-0.071044921875,-10.875,3.5,10.1875
3330,0.967041015625,0.1904296875,-0.084228515625,-7.125,0.75,5.875
3332,0.967041015625,0.1904296875,-0.084228515625,-7.125,0.75,5.875
3334,0.967041015625,0.1904296875,-0.084228515625,-7.125,0.75,5.875
3336,0.96142578125,0.189697265625,-0.092529296875,-3.1875,-1.6875,1.125
3338,0.96142578125,0.189697265625,-0.092529296875,-3.1875,-1.6875,1.125
3340,0.94970703125,0.18017578125,-0.1044921875,0.625,-3.1875,-3.8125
3342,0.94970703125,0.18017578125,-0.1044921875,0.625,-3.1875,-3.8125
3344,0.943115234375,0.167236328125,-0.125732421875,3.6875,-4,-7.5
3345,0.943115234375,0.167236328125,-0.125732421875,3.6875,-4,-7.5
3347,0.943115234375,0.167236328125,-0.125732421875,3.6875,-4,-7.5
3349,0.94677734375,0.1611328125,-0.14892578125,5.6875,-5.0625,-9.375
3352,0.94677734375,0.1611328125,-0.17626953125,6.4375,-5.625,-9.625
3355,0.948486328125,0.161376953125,-0.17626953125,6.4375,-5.625,-9.625
3357,0.937255859375,0.1640625,-0.20556640625,6.125,-5.3125,-8.9375
3359,0.937255859375,0.1640625,-0.20556640625,6.125,-5.3125,-8.9375
3361,0.937255859375,0.1640625,-0.20556640625,6.125,-5.3125,-7.5
3363,0.91357421875,0.162109375,-0.2275390625,5.1875,-3.375,-7.5
3365,0.91357421875,0.162109375,-0.2275390625,5.1875,-3.375,-7.5
3367,0.888916015625,0.15185546875,-0.241455078125,4.625,-0.3125,-5.375
3369,0.888916015625,0.15185546875,-0.241455078125,4.625,-0.3125,-5.375
3371,0.87548828125,0.130859375,-0.25048828125,4.875,3.3125,-2.8125
3372,0.87548828125,0.130859375,-0.25048828125,4.875,3.3125,-2.8125
3374,0.879150390625,0.1064453125,-0.260009765625,4.6875,6.8125,0.3125
3377,0.879150390625,0.1064453125,-0.260009765625,4.6875,6.8125,0.3125
3379,0.879150390625,0.08056640625,-0.27001953125,3.125,10.3125,4.0625
3381,0.888671875,0.08056640625,-0.27001953125,3.125,10.3125,4.0625
3383,0.888671875,0.08056640625,-0.27001953125,3.125,10.3125,4.0625
3384,0.888916015625,0.05517578125,-0.2763671875,-0.125,13.875,7.8125
3393,0.875,0.009033203125,-0.252197265625,-7.8125,21.75,13.125
3394,0.875,0.009033203125,-0.252197265625,-7.8125,21.75,13.125
3396,0.875,0.009033203125,-0.252197265625,-7.8125,21.75,13.125
3398,0.88232421875,-0.009521484375,-0.231689453125,-10.875,24.5,14.25
3401,0.88232421875,-0.009521484375,-0.231689453125,-10.875,24.5,14.25
3404,0.902587890625,-0.013916015625,-0.2216796875,-13.25,25.25,14.5625
3406,0.91796875,-0.004638671875,-0.22119140625,-15.0625,24.9375,13.5625
3410,0.91796875,-0.004638671875,-0.22119140625,-15.0625,24.9375,13.5625
3412,0.921142578125,0.003173828125,-0.22021484375,-15.6875,24.375,10.625
3414,0.921142578125,0.003173828125,-0.22021484375,-15.6875,24.375,10.625
3416,0.919921875,0.0087890625,-0.2197265625,-14.625,24.125,5.625
3419,0.919921875,0.0087890625,-0.2197265625,-14.625,24.125,5.625
3421,0.92138671875,0.02197265625,-0.212646484375,-11.4375,23.75,-1.1875
3425,0.923095703125,0.04443359375,-0.202880859375,-6.1875,22.4375,-9.1875
3427,0.923095703125,0.04443359375,-0.202880859375,-6.1875,22.4375,-9.1875
3429,0.9228515625,0.069091796875,-0.20263671875,-0.0625,19.875,-17.625
3431,0.9228515625,0.069091796875,-0.20263671875,-0.0625,19.875,-17.625
3434,0.92529296875,0.09033203125,-0.211181640625,6.875,16.875,-25.8125
3437,0.92333984375,0.105224609375,-0.2177734375,14,14.25,-34.1875
3440,0.92333984375,0.105224609375,-0.2177734375,14,14.25,-34.1875
3442,0.91650390625,0.111328125,-0.220703125,19.875,12.625,-42.4375
3444,0.91650390625,0.111328125,-0.220703125,19.875,12.625,-42.4375
3446,0.91015625,0.11083984375,-0.21337890625,24.3125,11.875,-49.3125
3449,0.91015625,0.11083984375,-0.21337890625,24.3125,11.875,-49.3125
3451,0.90869140625,0.11669921875,-0.207763671875,27.5625,10.9375,-54.375
3455,0.90869140625,0.11669921875,-0.207763671875,27.5625,10.9375,-54.375
3457,0.904052734375,0.129638671875,-0.21240234375,29.4375,10.3125,-57
3459,0.890869140625,0.138916015625,-0.223876953125,30.9375,10.75,-57.6875
3461,0.890869140625,0.138916015625,-0.223876953125,30.9375,10.75,-57.6875
3465,0.8720703125,0.138916015625,-0.24072265625,31.875,12.25,-57.3125
3468,0.8720703125,0.138916015625,-0.24072265625,31.875,12.25,-57.3125
3470,0.861572265625,0.130859375,-0.25,32.25,14.4375,-56.1875
3474,0.863037109375,0.122314453125,-0.24853515625,32.125,16.9375,-54.125
3476,0.863037109375,0.122314453125,-0.24853515625,30.625,19.6875,-50.625
3478,0.87109375,0.11572265625,-0.247802734375,30.625,19.6875,-50.625
3480,0.87109375,0.11572265625,-0.247802734375,30.625,19.6875,-50.625
3482,0.873779296875,0.108642578125,-0.249755859375,27.3125,22.25,-45.625
3486,0.873779296875,0.108642578125,-0.249755859375,27.3125,22.25,-45.625
3488,0.86962890625,0.096435546875,-0.2529296875,23.375,25.0625,-39.5625
3490,0.860107421875,0.085205078125,-0.245361328125,19.125,28.375,-33.625
3492,0.860107421875,0.085205078125,-0.245361328125,19.125,28.375,-33.625
3495,0.85791015625,0.07421875,-0.23583984375,15,31.5625,-28
3498,0.85791015625,0.07421875,-0.23583984375,15,31.5625,-28
3501,0.867919921875,0.0615234375,-0.221923828125,11.375,34.375,-22.6875
3503,0.885498046875,0.04638671875,-0.21142578125,8.125,36.1875,-18
3505,0.885498046875,0.04638671875,-0.21142578125,8.125,36.1875,-18
3507,0.885498046875,0.04638671875,-0.212646484375,4.75,37.4375,-13.75
3509,0.900390625,0.036865234375,-0.212646484375,4.75,37.4375,-13.75
3511,0.900390625,0.036865234375,-0.212646484375,4.75,37.4375,-13.75
3513,0.899658203125,0.027587890625,-0.209716796875,1.75,38.875,-10.9375
3515,0.899658203125,0.027587890625,-0.209716796875,1.75,38.875,-10.9375
3517,0.88818359375,0.018798828125,-0.194091796875,-0.4375,41.1875,-9.375
3519,0.88818359375,0.018798828125,-0.194091796875,-0.4375,41.1875,-9.375
3521,0.8857421875,0.026611328125,-0.1708984375,-1.125,43.125,-9.125
3523,0.8857421875,0.026611328125,-0.1708984375,-1.125,43.125,-9.125
3525,0.900634765625,0.064453125,-0.154541015625,1.0625,43.625,-10.0625
3527,0.900634765625,0.064453125,-0.154541015625,1.0625,43.625,-10.0625
3529,0.900634765625,0.064453125,-0.154541015625,1.0625,43.625,-10.0625
3531,0.91845703125,0.11767578125,-0.150634765625,6.4375,42.75,-12.5625
3533,0.91845703125,0.11767578125,-0.150634765625,6.4375,42.75,-12.5625
3535,0.937255859375,0.158935546875,-0.149658203125,13.8125,39.8125,-16.25
3536,0.937255859375,0.158935546875,-0.149658203125,13.8125,39.8125,-16.25
3539,0.965087890625,0.18017578125,-0.152099609375,22.0625,36.375,-20.6875
3541,0.965087890625,0.18017578125,-0.152099609375,22.0625,36.375,-20.6875
3543,0.9833984375,0.185791015625,-0.15087890625,30.125,33.9375,-25.5
3545,0.9833984375,0.185791015625,-0.15087890625,30.125,33.9375,-25.5
3547,0.9833984375,0.185791015625,-0.15087890625,30.125,33.9375,-25.5
3548,0.98681640625,0.1767578125,-0.1416015625,36.8125,33,-30.25
3550,0.98681640625,0.1767578125,-0.1416015625,36.8125,33,-30.25
3552,0.9892578125,0.16943359375,-0.138671875,41.9375,32.0625,-33.25
3554,0.9892578125,0.16943359375,-0.138671875,41.9375,32.0625,-33.25
3556,0.995849609375,0.169921875,-0.155029296875,45.4375,30.375,-34.125
3558,0.995849609375,0.169921875,-0.155029296875,45.4375,30.375,-34.125
3561,0.99609375,0.168701171875,-0.179443359375,48.0625,29.125,-34.375
3563,0.99609375,0.168701171875,-0.179443359375,48.0625,29.125,-34.375
3564,0.99609375,0.168701171875,-0.179443359375,48.0625,29.125,-33.6875
3566,0.98388671875,0.1630859375,-0.21630859375,50.0625,29.625,-33.6875
3568,0.98388671875,0.1630859375,-0.21630859375,50.0625,29.625,-33.6875
3570,0.978515625,0.155029296875,-0.248291015625,50.6875,31.6875,-31.5625
3572,0.978515625,0.155029296875,-0.248291015625,50.6875,31.6875,-31.5625
3574,0.97900390625,0.14404296875,-0.27490234375,50.4375,34.9375,-28.3125
3576,0.97900390625,0.14404296875,-0.27490234375,50.4375,34.9375,-28.3125
3578,0.97900390625,0.14404296875,-0.290771484375,49.1875,38.75,-23.9375
3580,0.97607421875,0.130126953125,-0.290771484375,49.1875,38.75,-23.9375
3582,0.97607421875,0.130126953125,-0.290771484375,33.1875,43.25,-18.6875
3584,0.973388671875,0.115966796875,-0.29150390625,47.0625,43.25,-18.6875
3586,0.973388671875,0.115966796875,-0.29150390625,47.0625,43.25,-18.6875
3588,0.97216796875,0.10107421875,-0.284912109375,44.4375,47.75,-12.6875
3590,0.97216796875,0.10107421875,-0.284912109375,44.4375,47.75,-12.6875
3592,0.9755859375,0.0859375,-0.275390625,40.875,51.375,-5.75
3594,0.9755859375,0.0859375,-0.275390625,40.875,51.375,-5.75
3596,0.9755859375,0.0859375,-0.270751953125,36.3125,53.9375,2.3125
3597,0.982177734375,0.074462890625,-0.270751953125,36.3125,53.9375,2.3125
3600,0.982177734375,0.074462890625,-0.270751953125,36.3125,53.9375,2.3125
3601,0.99267578125,0.065673828125,-0.27099609375,31.25,56.0625,10.8125
3604,0.99267578125,0.065673828125,-0.27099609375,31.25,56.0625,10.8125
3606,1.00048828125,0.054443359375,-0.273193359375,26.1875,58.25,19.125
3608,1.00048828125,0.054443359375,-0.273193359375,26.1875,58.25,19.125
3610,1.00390625,0.035888671875,-0.271484375,21.25,60.25,27
3611,1.00390625,0.035888671875,-0.271484375,21.25,60.25,27
3613,1.00390625,0.035888671875,-0.271484375,17.0625,61.3125,33.875
3615,1.013916015625,0.016357421875,-0.265625,17.0625,61.3125,33.875
3617,1.013916015625,0.016357421875,-0.265625,17.0625,61.3125,33.875
3619,1.0244140625,0.018798828125,-0.261474609375,14.25,61.4375,39
3621,1.0244140625,0.018798828125,-0.261474609375,14.25,61.4375,39
3623,1.031982421875,0.05029296875,-0.267333984375,13.5625,60.3125,41.8125
3625,1.031982421875,0.05029296875,-0.267333984375,13.5625,60.3125,41.8125
3628,1.041015625,0.0810546875,-0.28271484375,15.375,57.875,43.0625
3629,1.041015625,0.0810546875,-0.28271484375,15.375,57.875,43.0625
3631,1.0537109375,0.093505859375,-0.2998046875,18.8125,54.5,43.25
3633,1.0537109375,0.093505859375,-0.2998046875,18.8125,54.5,43.25
3635,1.0537109375,0.093505859375,-0.2998046875,18.8125,54.5,43.25
3637,1.06396484375,0.092041015625,-0.30908203125,22.8125,51.0625,42.5
3639,1.06396484375,0.092041015625,-0.30908203125,22.8125,51.0625,42.5
3641,1.0703125,0.0849609375,-0.325439453125,26.4375,47.625,41.1875
3643,1.0703125,0.0849609375,-0.325439453125,26.4375,47.625,41.1875
3645,1.0771484375,0.0732421875,-0.350830078125,28.625,44.125,40
3647,1.0771484375,0.0732421875,-0.350830078125,28.625,44.125,40
3649,1.07470703125,0.05615234375,-0.37548828125,30.1875,41.4375,39.375
3651,1.07470703125,0.05615234375,-0.37548828125,30.1875,41.4375,39.375
3653,1.07470703125,0.05615234375,-0.4033203125,30.875,39.8125,38.4375
3655,1.069091796875,0.041259765625,-0.4033203125,30.875,39.8125,38.4375
3657,1.069091796875,0.041259765625,-0.4033203125,30.875,39.8125,38.4375
3659,1.06884765625,0.0361328125,-0.431884765625,31.6875,38.625,36.9375
3661,1.06884765625,0.0361328125,-0.431884765625,31.6875,38.625,36.9375
3663,1.077392578125,0.027587890625,-0.448974609375,32.875,37.25,34.5
3665,1.077392578125,0.027587890625,-0.448974609375,32.875,37.25,34.5
3667,1.07958984375,0.01318359375,-0.45751953125,34.125,35.9375,31.75
3669,1.07958984375,0.01318359375,-0.45751953125,34.125,35.9375,31.75
3671,1.07958984375,0.01318359375,-0.45751953125,35.0625,35.0625,29
3673,1.074462890625,0.00146484375,-0.4609375,35.0625,35.0625,29
3675,1.074462890625,0.00146484375,-0.4609375,35.0625,35.0625,29
3677,1.0751953125,-0.011962890625,-0.458984375,35.375,34.8125,26.5625
3678,1.0751953125,-0.011962890625,-0.458984375,35.375,34.8125,26.5625
3680,1.089111328125,-0.0283203125,-0.458984375,35.5,34.625,24.375
3682,1.089111328125,-0.0283203125,-0.458984375,35.5,34.625,24.375
3684,1.104736328125,-0.04248046875,-0.455322265625,35.0625,34.25,22
3686,1.104736328125,-0.04248046875,-0.455322265625,35.0625,34.25,22
3688,1.104736328125,-0.04248046875,-0.455322265625,35.0625,34.25,22
3690,1.114501953125,-0.052001953125,-0.444091796875,34.1875,33.8125,19.6875
3692,1.114501953125,-0.052001953125,-0.444091796875,34.1875,33.8125,19.6875
3694,1.124755859375,-0.060302734375,-0.439208984375,32.9375,32.875,17.6875
3697,1.124755859375,-0.060302734375,-0.439208984375,32.9375,32.875,17.6875
3699,1.13037109375,-0.0673828125,-0.439453125,31.1875,31.875,16.0625
3701,1.13037109375,-0.0673828125,-0.439453125,31.1875,31.875,16.0625
3703,1.13330078125,-0.074951171875,-0.43359375,29.5,30.8125,14.375
3705,1.13330078125,-0.074951171875,-0.43359375,29.5,30.8125,14.375
3707,1.137939453125,-0.080810546875,-0.425048828125,27.875,29.3125,12.25
3709,1.137939453125,-0.080810546875,-0.425048828125,27.875,29.3125,12.25
3711,1.1474609375,-0.084716796875,-0.41552734375,26.5,27.75,10.1875
3713,1.1474609375,-0.084716796875,-0.41552734375,26.5,27.75,10.1875
3715,1.15625,-0.08349609375,-0.39892578125,25,25.9375,7.875
3717,1.15625,-0.08349609375,-0.39892578125,25,25.9375,7.875
3719,1.15625,-0.08349609375,-0.39892578125,25,25.9375,7.875
3721,1.162109375,-0.074951171875,-0.37890625,23.4375,23.8125,5.6875
3723,1.162109375,-0.074951171875,-0.37890625,23.4375,23.8125,5.6875
3725,1.1669921875,-0.06494140625,-0.361083984375,22.125,21,4
3727,1.1669921875,-0.06494140625,-0.361083984375,22.125,21,4
3729,1.171142578125,-0.057373046875,-0.35009765625,21.0625,17.75,2.9375
3731,1.171142578125,-0.057373046875,-0.35009765625,21.0625,17.75,2.9375
3733,1.171142578125,-0.057373046875,-0.35009765625,21.0625,17.75,2.9375
3735,1.172607421875,-0.0537109375,-0.3408203125,19.9375,14,1.875
3740,1.172607421875,-0.0537109375,-0.3408203125,19.9375,14,1.875
3742,1.1650390625,-0.047607421875,-0.314453125,16.0625,5.9375,0.8125
3744,1.1650390625,-0.047607421875,-0.314453125,16.0625,5.9375,0.8125
3746,1.1650390625,-0.047607421875,-0.314453125,16.0625,5.9375,0.8125
3748,1.158447265625,-0.044677734375,-0.308349609375,13.1875,2.0625,1.4375
3750,1.158447265625,-0.044677734375,-0.308349609375,13.1875,2.0625,1.4375
3752,1.147705078125,-0.04150390625,-0.307861328125,9.9375,-1.6875,2.375
3754,1.147705078125,-0.04150390625,-0.307861328125,9.9375,-1.6875,2.375
3755,1.131103515625,-0.0361328125,-0.308837890625,6.5,-5.6875,3.3125
3757,1.131103515625,-0.0361328125,-0.308837890625,6.5,-5.6875,3.3125
3759,1.131103515625,-0.0361328125,-0.308837890625,6.5,-5.6875,3.3125
3761,1.1162109375,-0.031982421875,-0.311279296875,3.375,-9.625,4
3764,1.1162109375,-0.031982421875,-0.311279296875,3.375,-9.625,4
3766,1.104736328125,-0.0302734375,-0.314453125,0.875,-13.0625,4.25
3768,1.104736328125,-0.0302734375,-0.314453125,0.875,-13.0625,4.25
3769,1.095947265625,-0.029541015625,-0.3134765625,-1.0625,-16.4375,4.25
3771,1.095947265625,-0.029541015625,-0.3134765625,-1.0625,-16.4375,4.25
3773,1.08544921875,-0.029541015625,-0.313720703125,-3,-19.125,3.8125
3775,1.08544921875,-0.029541015625,-0.313720703125,-3,-19.125,3.8125
3777,1.08544921875,-0.029541015625,-0.313720703125,-3,-19.125,3.8125
3779,1.072509765625,-0.02880859375,-0.3134765625,-4.9375,-21.375,3
3781,1.072509765625,-0.02880859375,-0.3134765625,-4.9375,-21.375,3
3783,1.056396484375,-0.0302734375,-0.31689453125,-6.4375,-23.4375,2.0625
3785,1.056396484375,-0.0302734375,-0.31689453125,-6.4375,-23.4375,2.0625
3787,1.0439453125,-0.032470703125,-0.321533203125,-7.625,-24.625,0.6875
3789,1.0439453125,-0.032470703125,-0.321533203125,-7.625,-24.625,0.6875
3791,1.03759765625,-0.036376953125,-0.322265625,-8.3125,-24.625,-0.8125
3793,1.03759765625,-0.036376953125,-0.322265625,-8.3125,-24.625,-0.8125
3795,1.03759765625,-0.036376953125,-0.322265625,-8.3125,-24.3125,-2.625
3797,1.035400390625,-0.03955078125,-0.312744140625,-8.8125,-24.3125,-2.625
3799,1.035400390625,-0.03955078125,-0.312744140625,-8.8125,-24.3125,-2.625
3801,1.037353515625,-0.041259765625,-0.301025390625,-9.5625,-24.625,-4.3125
3802,1.037353515625,-0.041259765625,-0.301025390625,-9.5625,-24.625,-4.3125
3804,1.03955078125,-0.03955078125,-0.29345703125,-10.125,-25.125,-5.875
3807,1.03955078125,-0.03955078125,-0.29345703125,-10.125,-25.125,-5.875
3809,1.037841796875,-0.0322265625,-0.287841796875,-10.375,-26,-7.8125
3811,1.037841796875,-0.0322265625,-0.287841796875,-10.375,-26,-7.8125
3813,1.032958984375,-0.022705078125,-0.287109375,-10.375,-27,-9.75
3815,1.032958984375,-0.022705078125,-0.287109375,-10.375,-27,-9.75
3816,1.032958984375,-0.022705078125,-0.287109375,-10.375,-27,-9.75
3818,1.027587890625,-0.019775390625,-0.28759765625,-9.875,-28.25,-12.1875
3820,1.027587890625,-0.019775390625,-0.28759765625,-9.875,-28.25,-12.1875
3822,1.02490234375,-0.01953125,-0.28857421875,-9.375,-29.3125,-14.4375
3824,1.02490234375,-0.01953125,-0.28857421875,-9.375,-29.3125,-14.4375
3826,1.02490234375,-0.01953125,-0.285888671875,-8.6875,-30.0625,-16.4375
3828,1.025390625,-0.022216796875,-0.285888671875,-8.6875,-30.0625,-16.4375
3830,1.025390625,-0.02783203125,-0.279296875,-8.75,-30.6875,-18.0625
3832,1.02880859375,-0.02783203125,-0.279296875,-8.75,-30.6875,-18.0625
3834,1.02880859375,-0.02783203125,-0.279296875,-8.75,-30.6875,-18.0625
3836,1.033203125,-0.03125,-0.2734375,-9.5,-31.4375,-18.5625
3838,1.033203125,-0.03125,-0.2734375,-9.5,-31.4375,-18.5625
3840,1.034912109375,-0.030029296875,-0.265625,-11.0625,-32.375,-18.8125
3842,1.034912109375,-0.030029296875,-0.265625,-11.0625,-32.375,-18.8125
3844,1.031982421875,-0.022216796875,-0.262451171875,-13,-33.1875,-18.5625
3846,1.031982421875,-0.022216796875,-0.262451171875,-13,-33.1875,-18.5625
3848,1.031982421875,-0.022216796875,-0.262451171875,-13,-33.1875,-18.5625
3850,1.02734375,-0.01171875,-0.267822265625,-14.5625,-34.375,-18.375
3852,1.02734375,-0.01171875,-0.267822265625,-14.5625,-34.375,-18.375
