time,acc_x,acc_y,acc_z,gyro_x,gyro_y,gyro_z,temp
0,0.0,0.0,0.0,0.0,0.0,0.0,0.0
2,0.0,0.0,0.0,0.0,0.0,0.0,0.0
4,0.0,0.0,0.0,0.0,0.0,0.0,0.0
6,0.0,0.0,0.0,0.0,0.0,0.0,0.0
8,0.0,0.0,0.0,0.0,0.0,0.0,0.0
10,0.0,0.0,0.0,0.0,0.0,0.0,0.0
12,0.0,0.0,0.0,0.0,0.0,0.0,0.0
14,0.0,0.0,0.0,0.0,0.0,0.0,0.0
16,0.0,0.0,0.0,0.0,0.0,0.0,0.0
18,0.0,0.0,0.0,0.0,0.0,0.0,0.0
20,0.0,0.0,0.0,0.0,0.0,0.0,0.0
22,0.0,0.0,0.0,0.0,0.0,0.0,0.0
24,0.0,0.0,0.0,0.0,0.0,0.0,0.0
26,0.0,0.0,0.0,0.0,0.0,0.0,0.0
28,0.0,0.0,0.0,0.0,0.0,0.0,0.0
30,0.0,0.0,0.0,0.0,0.0,0.0,0.0
32,0.0,0.0,0.0,0.0,0.0,0.0,0.0
34,0.0,0.0,0.0,0.0,0.0,0.0,0.0
37,0.0,0.0,0.0,0.0,0.0,0.0,0.0
39,0.0,0.0,0.0,0.0,0.0,0.0,0.0
41,0.0,0.0,0.0,0.0,0.0,0.0,0.0
43,0.0,0.0,0.0,0.0,0.0,0.0,0.0
45,0.0,0.0,0.0,0.0,0.0,0.0,0.0
47,0.0,0.0,0.0,0.0,0.0,0.0,0.0
49,0.0,0.0,0.0,0.0,0.0,0.0,0.0
51,0.0,0.0,0.0,0.0,0.0,0.0,0.0
55,0.0,0.0,0.0,0.0,0.0,0.0,0.0
57,0.0,0.0,0.0,0.0,0.0,0.0,0.0
59,0.0,0.0,0.0,0.0,0.0,0.0,0.0
61,0.0,0.0,0.0,0.0,0.0,0.0,0.0
63,0.0,0.0,0.0,0.0,0.0,0.0,0.0
65,0.0,0.0,0.0,0.0,0.0,0.0,0.0
67,0.0,0.0,0.0,0.0,0.0,0.0,0.0
69,0.0,0.0,0.0,0.0,0.0,0.0,0.0
71,0.0,0.0,0.0,0.0,0.0,0.0,0.0
73,0.0,0.0,0.0,0.0,0.0,0.0,0.0
75,0.0,0.0,0.0,0.0,0.0,0.0,0.0
77,0.0,0.0,0.0,0.0,0.0,0.0,0.0
79,0.0,0.0,0.0,0.0,0.0,0.0,0.0
81,0.0,0.0,0.0,0.0,0.0,0.0,0.0
82,0.0,0.0,0.0,0.0,0.0,0.0,0.0
84,0.0,0.0,0.0,0.0,0.0,0.0,0.0
86,0.0,0.0,0.0,0.0,0.0,0.0,0.0
88,0.0,0.0,0.0,0.0,0.0,0.0,0.0
90,0.0,0.0,0.0,0.0,0.0,0.0,0.0
92,0.0,0.0,0.0,0.0,0.0,0.0,0.0
93,0.0,0.0,0.0,0.0,0.0,0.0,0.0
95,0.0,0.0,0.0,0.0,0.0,0.0,0.0
97,1.407470703125,2.030029296875,1.584228515625,435.875,259.1875,434.875,36.43359375
99,1.407470703125,2.030029296875,1.584228515625,435.875,259.1875,434.875,36.43359375
101,-8.0,-8.0,-8.0,-2048.0,357.25,-2048.0,36.43359375
103,-8.0,-8.0,-8.0,-2048.0,357.25,-2048.0,36.43359375
105,7.999755859375,7.999755859375,7.999755859375,-1356.8125,-2048.0,-2048.0,36.43359375
107,7.999755859375,7.999755859375,7.999755859375,-1356.8125,-2048.0,-2048.0,36.43359375
109,7.999755859375,7.999755859375,7.999755859375,-1356.8125,-2048.0,-2048.0,36.43359375
111,-0.874267578125,0.091064453125,-0.44775390625,7.5625,-3.375,-3.1875,36.43359375
113,-0.874267578125,0.091064453125,-0.44775390625,7.5625,-3.375,-3.1875,36.43359375
115,-0.873779296875,0.093505859375,-0.451416015625,7.5625,-3.3125,-3.3125,36.43359375
117,-0.873779296875,0.093505859375,-0.451416015625,7.5625,-3.3125,-3.3125,36.43359375
118,-0.875732421875,0.095458984375,-0.452392578125,7.125,-3.3125,-3.25,36.43359375
120,-0.875732421875,0.095458984375,-0.452392578125,7.125,-3.3125,-3.25,36.43359375
122,-0.875732421875,0.095458984375,-0.452392578125,7.125,-3.3125,-3.0,36.43359375
124,-0.876708984375,0.097900390625,-0.451904296875,5.1875,-3.375,-3.0,36.5703125
127,-0.876708984375,0.097900390625,-0.451904296875,5.1875,-3.375,-2.875,36.5703125
129,-0.873291015625,0.0986328125,-0.453857421875,3.875,-3.4375,-2.875,36.5703125
131,-0.873291015625,0.0986328125,-0.453857421875,3.875,-3.4375,-2.875,36.5703125
133,-0.8740234375,0.1025390625,-0.458251953125,2.9375,-3.5625,-2.6875,36.5703125
134,-0.8740234375,0.1025390625,-0.458251953125,2.9375,-3.5625,-2.6875,36.5703125
136,-0.8740234375,0.103515625,-0.458984375,2.375,-3.6875,-2.75,36.5703125
138,-0.8740234375,0.103515625,-0.458984375,2.375,-3.6875,-2.75,36.5703125
140,-0.8740234375,0.103515625,-0.458984375,1.9375,-3.9375,-2.75,36.5703125
142,-0.87646484375,0.103759765625,-0.457275390625,1.9375,-3.9375,-2.75,36.5703125
144,-0.87646484375,0.103759765625,-0.457275390625,1.9375,-3.9375,-2.75,36.5703125
146,-0.876708984375,0.104736328125,-0.455322265625,1.4375,-4.0,-2.8125,36.5703125
148,-0.876708984375,0.104736328125,-0.455322265625,1.4375,-4.0,-2.8125,36.5703125
150,-0.876953125,0.1015625,-0.452392578125,0.75,-4.1875,-3.0625,36.5703125
153,-0.876953125,0.1015625,-0.452392578125,0.75,-4.1875,-3.125,36.5703125
155,-0.87744140625,0.098388671875,-0.449951171875,0.3125,-4.375,-3.125,36.5703125
159,-0.8798828125,0.09326171875,-0.4482421875,-0.1875,-4.5625,-3.0625,36.5703125
162,-0.8798828125,0.09326171875,-0.4482421875,-0.1875,-4.5625,-3.0625,36.5703125
164,-0.88427734375,0.0908203125,-0.444091796875,-0.625,-4.4375,-3.1875,36.5703125
166,-0.88427734375,0.0908203125,-0.444091796875,-0.625,-4.4375,-3.1875,36.5703125
168,-0.88720703125,0.087890625,-0.441650390625,-0.625,-4.5,-3.0625,36.5703125
170,-0.88720703125,0.087890625,-0.441650390625,-0.625,-4.5,-3.0625,36.5703125
171,-0.88818359375,0.086181640625,-0.441162109375,-0.4375,-4.6875,-3.25,36.5703125
173,-0.88818359375,0.086181640625,-0.441162109375,-0.4375,-4.6875,-3.25,36.5703125
176,-0.889404296875,0.083740234375,-0.441650390625,-0.125,-4.9375,-3.5,36.5703125
178,-0.889404296875,0.083740234375,-0.441650390625,-0.125,-4.9375,-3.5,36.5703125
180,-0.8896484375,0.082275390625,-0.44091796875,0.5,-4.9375,-3.5625,36.5703125
182,-0.8896484375,0.082275390625,-0.44091796875,0.5,-4.9375,-3.5625,36.5703125
184,-0.8896484375,0.082275390625,-0.44091796875,0.5,-4.9375,-3.5625,36.5703125
186,-0.88818359375,0.078857421875,-0.441162109375,1.25,-5.125,-3.5,36.5703125
188,-0.88818359375,0.078857421875,-0.441162109375,1.25,-5.125,-3.5,36.5703125
190,-0.88818359375,0.07763671875,-0.44189453125,2.0625,-4.9375,-3.5625,36.5703125
192,-0.88818359375,0.07763671875,-0.44189453125,2.0625,-4.9375,-3.5625,36.5703125
194,-0.889892578125,0.076171875,-0.44091796875,2.625,-4.5625,-3.625,36.5703125
196,-0.889892578125,0.076171875,-0.44091796875,2.625,-4.5625,-3.625,36.5703125
198,-0.891845703125,0.07568359375,-0.441650390625,3.1875,-4.5625,-3.625,36.5703125
200,-0.891845703125,0.07568359375,-0.441650390625,3.1875,-4.5625,-3.625,36.5703125
202,-0.892578125,0.07568359375,-0.44287109375,4.0,-4.375,-3.625,36.5703125
204,-0.892578125,0.07568359375,-0.44287109375,4.0,-4.375,-3.625,36.5703125
206,-0.892578125,0.07568359375,-0.44287109375,4.0,-4.375,-3.625,36.5703125
208,-0.892822265625,0.07421875,-0.442138671875,4.8125,-4.375,-3.6875,36.5703125
210,-0.892822265625,0.07421875,-0.442138671875,4.8125,-4.375,-3.6875,36.5703125
212,-0.894287109375,0.072998046875,-0.44140625,5.5,-4.6875,-3.8125,36.5703125
214,-0.894287109375,0.072998046875,-0.44140625,5.5,-4.6875,-3.8125,36.5703125
216,-0.893310546875,0.07177734375,-0.442138671875,6.125,-4.6875,-3.875,36.5703125
218,-0.893310546875,0.07177734375,-0.442138671875,6.125,-4.6875,-3.875,36.5703125
219,-0.893310546875,0.07177734375,-0.442138671875,6.125,-4.6875,-3.875,36.5703125
222,-0.894287109375,0.069580078125,-0.442138671875,6.75,-4.6875,-3.625,36.5703125
224,-0.894287109375,0.069580078125,-0.442138671875,6.75,-4.6875,-3.625,36.5703125
226,-0.89794921875,0.06787109375,-0.442626953125,7.625,-4.625,-3.5625,36.5703125
228,-0.89794921875,0.06787109375,-0.442626953125,7.625,-4.625,-3.5625,36.5703125
229,-0.8994140625,0.06787109375,-0.436767578125,7.8125,-4.75,-3.75,36.5703125
231,-0.8994140625,0.06787109375,-0.436767578125,7.8125,-4.75,-3.75,36.5703125
233,-0.900390625,0.06689453125,-0.431640625,7.875,-4.875,-3.75,36.5703125
235,-0.900390625,0.06689453125,-0.431640625,7.875,-4.875,-3.75,36.5703125
237,-0.900390625,0.06689453125,-0.431640625,7.875,-4.875,-3.75,36.5703125
239,-0.898193359375,0.06689453125,-0.427490234375,7.875,-4.6875,-3.8125,36.5703125
241,-0.898193359375,0.06689453125,-0.427490234375,7.875,-4.6875,-3.8125,36.5703125
243,-0.906005859375,0.0673828125,-0.421142578125,7.625,-4.5625,-3.375,36.5703125
245,-0.906005859375,0.0673828125,-0.421142578125,7.625,-4.5625,-3.375,36.5703125
247,-0.910400390625,0.0673828125,-0.415283203125,7.0625,-4.375,-3.0625,36.5703125
249,-0.910400390625,0.0673828125,-0.415283203125,7.0625,-4.375,-3.0625,36.5703125
251,-0.910400390625,0.0673828125,-0.41162109375,6.8125,-4.3125,-2.9375,36.5703125
253,-0.906005859375,0.068603515625,-0.41162109375,6.8125,-4.3125,-2.9375,36.5703125
255,-0.906005859375,0.068603515625,-0.41162109375,6.8125,-4.3125,-2.9375,36.5703125
257,-0.9052734375,0.06982421875,-0.408203125,6.5625,-4.125,-3.0625,36.5703125
259,-0.9052734375,0.06982421875,-0.408203125,6.5625,-4.125,-3.0625,36.5703125
261,-0.9052734375,0.069580078125,-0.40625,6.0,-3.6875,-2.875,36.5703125
263,-0.9052734375,0.069580078125,-0.40625,6.0,-3.6875,-2.875,36.5703125
265,-0.90478515625,0.072509765625,-0.404541015625,5.125,-3.375,-2.4375,36.53515625
268,-0.90478515625,0.072509765625,-0.404541015625,5.125,-3.375,-2.4375,36.53515625
269,-0.90576171875,0.0751953125,-0.402099609375,4.1875,-2.75,-2.3125,36.53515625
271,-0.90576171875,0.0751953125,-0.402099609375,4.1875,-2.75,-2.3125,36.53515625
273,-0.906982421875,0.07470703125,-0.401611328125,3.125,-2.25,-2.0,36.53515625
275,-0.906982421875,0.07470703125,-0.401611328125,3.125,-2.25,-2.0,36.53515625
277,-0.906982421875,0.07470703125,-0.401611328125,3.125,-2.25,-2.0,36.53515625
279,-0.907958984375,0.072509765625,-0.401123046875,2.125,-1.8125,-1.8125,36.53515625
281,-0.907958984375,0.072509765625,-0.401123046875,2.125,-1.8125,-1.8125,36.53515625
283,-0.908935546875,0.07177734375,-0.400146484375,1.125,-1.5,-1.625,36.53515625
285,-0.908935546875,0.07177734375,-0.400146484375,1.125,-1.5,-1.625,36.53515625
287,-0.90966796875,0.0703125,-0.4013671875,0.0625,-1.0,-1.5,36.53515625
289,-0.90966796875,0.0703125,-0.4013671875,0.0625,-1.0,-1.5,36.53515625
291,-0.907470703125,0.068603515625,-0.401611328125,-0.875,-0.5,-1.5,36.53515625
293,-0.907470703125,0.068603515625,-0.401611328125,-0.875,-0.5,-1.5,36.53515625
295,-0.907470703125,0.068603515625,-0.401611328125,-0.875,-0.375,-1.5625,36.53515625
297,-0.90771484375,0.068359375,-0.403076171875,-1.625,-0.375,-1.5625,36.53515625
299,-0.90771484375,0.068359375,-0.403076171875,-1.625,-0.375,-1.5625,36.53515625
301,-0.908447265625,0.06884765625,-0.403076171875,-2.625,0.0625,-1.375,36.53515625
303,-0.908447265625,0.06884765625,-0.403076171875,-2.625,0.0625,-1.375,36.53515625
305,-0.9091796875,0.071533203125,-0.4033203125,-3.5,0.4375,-1.1875,36.53515625
307,-0.9091796875,0.071533203125,-0.4033203125,-3.5,0.4375,-1.1875,36.53515625
309,-0.908447265625,0.073486328125,-0.40234375,-4.0,0.6875,-1.0625,36.53515625
311,-0.908447265625,0.073486328125,-0.40234375,-4.0,0.6875,-1.0625,36.53515625
313,-0.910400390625,0.07275390625,-0.401611328125,-4.25,1.125,-0.9375,36.53515625
315,-0.910400390625,0.07275390625,-0.401611328125,-4.25,1.125,-0.9375,36.53515625
317,-0.910400390625,0.07275390625,-0.401611328125,-4.25,1.125,-0.5625,36.53515625
319,-0.91162109375,0.07080078125,-0.400146484375,-4.125,1.125,-0.5625,36.53515625
321,-0.91162109375,0.07080078125,-0.400146484375,-4.125,1.125,-0.5625,36.53515625
323,-0.91357421875,0.071044921875,-0.39990234375,-3.6875,1.0625,-0.3125,36.53515625
325,-0.91357421875,0.071044921875,-0.39990234375,-3.6875,1.0625,-0.3125,36.53515625
327,-0.913330078125,0.069091796875,-0.396728515625,-2.875,1.3125,0.0625,36.53515625
329,-0.913330078125,0.069091796875,-0.396728515625,-2.875,1.3125,0.0625,36.53515625
331,-0.913330078125,0.070068359375,-0.39501953125,-1.9375,1.8125,0.0625,36.53515625
333,-0.9130859375,0.070068359375,-0.39501953125,-1.9375,1.8125,0.0625,36.53515625
335,-0.9130859375,0.070068359375,-0.3955078125,-0.75,2.125,0.1875,36.53515625
337,-0.91259765625,0.0732421875,-0.3955078125,-0.75,2.125,0.1875,36.53515625
339,-0.91259765625,0.0732421875,-0.3955078125,-0.75,2.125,0.1875,36.53515625
341,-0.91259765625,0.078125,-0.394775390625,0.3125,2.5,0.4375,36.53515625
343,-0.91259765625,0.078125,-0.394775390625,0.3125,2.5,0.4375,36.53515625
345,-0.912353515625,0.080078125,-0.392333984375,1.3125,3.3125,0.75,36.53515625
347,-0.912353515625,0.080078125,-0.392333984375,1.3125,3.3125,0.75,36.53515625
349,-0.909912109375,0.0830078125,-0.39453125,2.3125,3.75,0.8125,36.53515625
351,-0.909912109375,0.0830078125,-0.39453125,2.3125,3.75,0.8125,36.53515625
353,-0.909912109375,0.0830078125,-0.39453125,2.3125,3.75,0.8125,36.53515625
354,-0.9072265625,0.08642578125,-0.3984375,3.0625,4.6875,0.875,36.53515625
356,-0.9072265625,0.08642578125,-0.3984375,3.0625,4.6875,0.875,36.53515625
359,-0.90380859375,0.088623046875,-0.40234375,3.625,5.3125,0.75,36.53515625
361,-0.90380859375,0.088623046875,-0.40234375,3.625,5.3125,0.75,36.53515625
362,-0.901611328125,0.088623046875,-0.403076171875,4.3125,6.0,0.8125,36.53515625
364,-0.901611328125,0.088623046875,-0.403076171875,4.3125,6.0,0.8125,36.53515625
366,-0.901611328125,0.08935546875,-0.402099609375,4.75,6.375,1.0,36.53515625
369,-0.901611328125,0.08935546875,-0.402099609375,4.75,6.375,1.0,36.53515625
370,-0.901611328125,0.08935546875,-0.402099609375,5.25,6.9375,1.0,36.53515625
372,-0.89794921875,0.091796875,-0.400634765625,5.25,6.9375,1.0,36.53515625
374,-0.89794921875,0.091796875,-0.400634765625,5.25,6.9375,1.0,36.53515625
376,-0.894775390625,0.093505859375,-0.399658203125,5.625,7.375,0.6875,36.53515625
378,-0.894775390625,0.093505859375,-0.399658203125,5.625,7.375,0.6875,36.53515625
380,-0.893310546875,0.09130859375,-0.397705078125,5.5,8.0625,0.875,36.53515625
383,-0.893310546875,0.09130859375,-0.397705078125,5.5,8.0625,0.875,36.53515625
384,-0.894775390625,0.090087890625,-0.392578125,5.0625,8.5625,1.0,36.53515625
386,-0.894775390625,0.090087890625,-0.392578125,5.0625,8.5625,1.0,36.53515625
389,-0.893310546875,0.0888671875,-0.390869140625,4.25,9.0,0.9375,36.53515625
390,-0.893310546875,0.0888671875,-0.390869140625,4.25,9.0,0.9375,36.53515625
392,-0.893310546875,0.0888671875,-0.390869140625,4.25,9.0,0.9375,36.53515625
394,-0.885498046875,0.083984375,-0.3935546875,3.4375,9.75,0.875,36.53515625
396,-0.885498046875,0.083984375,-0.3935546875,3.4375,9.75,0.875,36.53515625
398,-0.88623046875,0.08447265625,-0.394775390625,2.3125,10.4375,0.6875,36.53515625
401,-0.88623046875,0.08447265625,-0.394775390625,2.3125,10.4375,0.6875,36.53515625
404,-0.886962890625,0.08349609375,-0.396728515625,1.0625,10.9375,0.4375,36.53515625
406,-0.886962890625,0.083251953125,-0.398681640625,-0.0625,11.25,0.125,36.53515625
409,-0.884521484375,0.083251953125,-0.398681640625,-0.0625,11.25,0.125,36.58203125
410,-0.879638671875,0.082275390625,-0.400634765625,-0.9375,11.625,-0.0625,36.58203125
412,-0.879638671875,0.082275390625,-0.400634765625,-0.9375,11.625,-0.0625,36.58203125
414,-0.879638671875,0.082275390625,-0.400634765625,-0.9375,11.625,-0.0625,36.58203125
416,-0.878662109375,0.08251953125,-0.39990234375,-1.875,11.75,-0.25,36.58203125
418,-0.878662109375,0.08251953125,-0.39990234375,-1.875,11.75,-0.25,36.58203125
420,-0.876708984375,0.0859375,-0.40087890625,-2.75,11.9375,-0.4375,36.58203125
422,-0.876708984375,0.0859375,-0.40087890625,-2.75,11.9375,-0.4375,36.58203125
424,-0.875244140625,0.088134765625,-0.40087890625,-3.6875,12.375,-0.6875,36.58203125
426,-0.875244140625,0.088134765625,-0.40087890625,-3.6875,12.375,-0.6875,36.58203125
428,-0.87255859375,0.090576171875,-0.398193359375,-4.75,12.8125,-1.0,36.58203125
431,-0.87255859375,0.090576171875,-0.398193359375,-4.75,12.8125,-1.0,36.58203125
433,-0.869140625,0.091064453125,-0.3984375,-6.0625,13.3125,-1.4375,36.58203125
435,-0.869140625,0.091064453125,-0.3984375,-6.0625,13.3125,-1.4375,36.58203125
437,-0.869140625,0.091064453125,-0.3984375,-6.0625,13.3125,-1.4375,36.58203125
439,-0.865234375,0.09130859375,-0.401123046875,-7.125,13.625,-1.5625,36.58203125
441,-0.865234375,0.09130859375,-0.401123046875,-7.125,13.625,-1.5625,36.58203125
442,-0.861083984375,0.089599609375,-0.39990234375,-8.0625,14.125,-1.4375,36.58203125
444,-0.861083984375,0.089599609375,-0.39990234375,-8.0625,14.125,-1.4375,36.58203125
446,-0.860107421875,0.0849609375,-0.398193359375,-8.8125,14.875,-1.4375,36.58203125
448,-0.860107421875,0.0849609375,-0.398193359375,-8.8125,14.875,-1.4375,36.58203125
450,-0.860107421875,0.0849609375,-0.398193359375,-8.8125,15.5,-1.5,36.58203125
453,-0.8603515625,0.084228515625,-0.397705078125,-9.75,15.5,-1.5,36.58203125
454,-0.8603515625,0.084228515625,-0.397705078125,-9.75,15.5,-1.5,36.58203125
456,-0.85791015625,0.08447265625,-0.398193359375,-10.6875,15.8125,-1.5625,36.58203125
458,-0.85791015625,0.08447265625,-0.398193359375,-10.6875,15.8125,-1.5625,36.58203125
460,-0.851318359375,0.0830078125,-0.39892578125,-11.5625,16.25,-1.75,36.58203125
462,-0.851318359375,0.0830078125,-0.39892578125,-11.5625,16.25,-1.75,36.58203125
464,-0.84619140625,0.07763671875,-0.400634765625,-12.25,16.75,-2.125,36.58203125
466,-0.84619140625,0.07763671875,-0.400634765625,-12.25,16.75,-2.125,36.58203125
468,-0.84521484375,0.072265625,-0.400634765625,-12.6875,17.3125,-2.25,36.58203125
470,-0.84521484375,0.072265625,-0.400634765625,-12.6875,17.3125,-2.25,36.58203125
473,-0.845458984375,0.070556640625,-0.39990234375,-12.5,18.0625,-2.1875,36.58203125
476,-0.845458984375,0.070556640625,-0.39990234375,-12.5,18.0625,-2.1875,36.58203125
478,-0.844970703125,0.07080078125,-0.4013671875,-12.125,18.625,-2.25,36.58203125
480,-0.844970703125,0.07080078125,-0.4013671875,-12.125,18.625,-2.25,36.58203125
482,-0.841796875,0.07177734375,-0.402587890625,-11.5625,18.875,-2.1875,36.58203125
484,-0.841796875,0.07177734375,-0.402587890625,-11.5625,18.875,-2.1875,36.58203125
486,-0.838134765625,0.07080078125,-0.403564453125,-11.125,19.0625,-2.0625,36.58203125
488,-0.838134765625,0.07080078125,-0.403564453125,-11.125,19.0625,-2.0625,36.58203125
490,-0.838134765625,0.07080078125,-0.403564453125,-11.125,19.0625,-2.0625,36.58203125
492,-0.833251953125,0.07080078125,-0.404296875,-10.375,19.1875,-2.0,36.58203125
493,-0.833251953125,0.07080078125,-0.404296875,-10.375,19.1875,-2.0,36.58203125
495,-0.826171875,0.07373046875,-0.407470703125,-9.5625,19.625,-1.9375,36.58203125
498,-0.826171875,0.07373046875,-0.407470703125,-9.5625,19.625,-1.9375,36.58203125
500,-0.820068359375,0.07568359375,-0.41357421875,-8.8125,20.0625,-1.875,36.58203125
502,-0.820068359375,0.07568359375,-0.41357421875,-8.8125,20.0625,-1.875,36.58203125
504,-0.815673828125,0.076904296875,-0.4208984375,-8.0625,20.3125,-1.8125,36.58203125
506,-0.815673828125,0.076904296875,-0.4208984375,-8.0625,20.3125,-1.8125,36.58203125
508,-0.815673828125,0.076904296875,-0.4208984375,-7.0625,20.4375,-1.6875,36.58203125
510,-0.81005859375,0.07763671875,-0.4248046875,-7.0625,20.4375,-1.6875,36.58203125
512,-0.81005859375,0.07763671875,-0.4248046875,-7.0625,20.4375,-1.6875,36.58203125
514,-0.80712890625,0.07861328125,-0.43017578125,-6.0625,20.5625,-1.6875,36.58203125
515,-0.80712890625,0.07861328125,-0.43017578125,-6.0625,20.5625,-1.6875,36.58203125
517,-0.80078125,0.077880859375,-0.435302734375,-5.25,20.625,-1.75,36.58203125
520,-0.80078125,0.077880859375,-0.435302734375,-5.25,20.625,-1.75,36.58203125
522,-0.795654296875,0.077392578125,-0.4384765625,-4.375,20.5625,-1.625,36.58203125
524,-0.795654296875,0.077392578125,-0.4384765625,-4.375,20.5625,-1.625,36.58203125
525,-0.795654296875,0.077392578125,-0.4384765625,-3.625,20.5,-1.6875,36.58203125
527,-0.794921875,0.075927734375,-0.442138671875,-3.625,20.5,-1.6875,36.58203125
529,-0.794921875,0.075927734375,-0.442138671875,-3.625,20.5,-1.6875,36.58203125
531,-0.79248046875,0.076416015625,-0.444580078125,-2.625,20.875,-1.9375,36.58203125
533,-0.79248046875,0.076416015625,-0.444580078125,-2.625,20.875,-1.9375,36.58203125
535,-0.78759765625,0.08056640625,-0.44482421875,-1.875,21.0,-2.125,36.58203125
537,-0.78759765625,0.08056640625,-0.44482421875,-1.875,21.0,-2.125,36.58203125
539,-0.78076171875,0.084716796875,-0.447021484375,-1.4375,20.5625,-2.3125,36.58203125
542,-0.78076171875,0.084716796875,-0.447021484375,-1.4375,20.5625,-2.3125,36.58203125
544,-0.778076171875,0.08642578125,-0.44970703125,-1.5,20.3125,-2.375,36.58203125
547,-0.778076171875,0.08642578125,-0.44970703125,-1.5,20.3125,-2.375,36.58203125
548,-0.77880859375,0.087890625,-0.449462890625,-2.0625,20.5625,-2.4375,36.58203125
550,-0.77880859375,0.087890625,-0.449462890625,-2.0625,20.5625,-2.4375,36.58203125
552,-0.779052734375,0.08740234375,-0.449951171875,-2.625,20.8125,-2.6875,36.58203125
554,-0.779052734375,0.08740234375,-0.449951171875,-2.625,20.8125,-2.6875,36.58203125
556,-0.779052734375,0.08740234375,-0.449951171875,-2.625,20.8125,-2.6875,36.58203125
559,-0.777587890625,0.087158203125,-0.4501953125,-2.6875,20.9375,-2.875,36.58203125
560,-0.777587890625,0.087158203125,-0.4501953125,-2.6875,20.9375,-2.875,36.58203125
562,-0.774658203125,0.084716796875,-0.451171875,-2.5625,20.6875,-3.125,36.58203125
565,-0.774658203125,0.084716796875,-0.451171875,-2.5625,20.6875,-3.125,36.58203125
567,-0.774169921875,0.08203125,-0.4501953125,-2.375,20.6875,-3.4375,36.58203125
569,-0.774169921875,0.08203125,-0.4501953125,-2.375,20.6875,-3.4375,36.58203125
571,-0.775146484375,0.0810546875,-0.445068359375,-2.5,20.8125,-3.6875,36.58203125
573,-0.775146484375,0.0810546875,-0.445068359375,-2.5,20.8125,-3.6875,36.58203125
575,-0.7763671875,0.080322265625,-0.44091796875,-2.875,20.6875,-3.9375,36.58203125
577,-0.7763671875,0.080322265625,-0.44091796875,-2.875,20.6875,-3.9375,36.58203125
579,-0.7763671875,0.080322265625,-0.438232421875,-3.625,20.6875,-4.0,36.58203125
581,-0.778076171875,0.079345703125,-0.438232421875,-3.625,20.6875,-4.0,36.58203125
583,-0.778076171875,0.079345703125,-0.438232421875,-3.625,20.6875,-4.0,36.58203125
585,-0.77880859375,0.0771484375,-0.435302734375,-4.4375,20.875,-4.125,36.58203125
587,-0.77880859375,0.0771484375,-0.435302734375,-4.4375,20.875,-4.125,36.58203125
589,-0.779541015625,0.07763671875,-0.428466796875,-5.4375,20.875,-4.25,36.58203125
591,-0.779541015625,0.07763671875,-0.428466796875,-5.4375,20.875,-4.25,36.58203125
593,-0.78076171875,0.075439453125,-0.42431640625,-6.5625,20.9375,-4.4375,36.58203125
595,-0.78076171875,0.075439453125,-0.42431640625,-6.5625,20.9375,-4.4375,36.58203125
597,-0.7822265625,0.075927734375,-0.41943359375,-7.5,20.6875,-4.6875,36.58203125
599,-0.7822265625,0.075927734375,-0.41943359375,-7.5,20.6875,-4.6875,36.58203125
601,-0.7822265625,0.075927734375,-0.41943359375,-7.5,20.5625,-5.0625,36.58203125
603,-0.7822265625,0.0771484375,-0.41357421875,-8.5,20.5625,-5.0625,36.58203125
605,-0.7822265625,0.0771484375,-0.41357421875,-8.5,20.5625,-5.0625,36.58203125
606,-0.78173828125,0.076904296875,-0.40478515625,-9.3125,20.6875,-5.3125,36.58203125
609,-0.78173828125,0.076904296875,-0.40478515625,-9.3125,20.6875,-5.3125,36.58203125
611,-0.784912109375,0.078857421875,-0.396728515625,-9.75,21.1875,-5.625,36.58203125
613,-0.784912109375,0.078857421875,-0.396728515625,-9.75,21.1875,-5.625,36.58203125
616,-0.786865234375,0.079833984375,-0.391357421875,-10.25,22.125,-5.75,36.58203125
618,-0.786865234375,0.079833984375,-0.391357421875,-10.25,22.125,-5.75,36.58203125
620,-0.78662109375,0.077880859375,-0.386962890625,-10.3125,23.1875,-5.6875,36.58203125
622,-0.78662109375,0.077880859375,-0.386962890625,-10.3125,23.1875,-5.6875,36.58203125
624,-0.788818359375,0.074951171875,-0.38427734375,-10.0,24.25,-5.5,36.58203125
626,-0.788818359375,0.074951171875,-0.38427734375,-10.0,24.25,-5.5,36.58203125
628,-0.79345703125,0.0693359375,-0.38525390625,-9.4375,25.0625,-4.8125,36.58203125
630,-0.79345703125,0.0693359375,-0.38525390625,-9.4375,25.0625,-4.8125,36.58203125
632,-0.79833984375,0.0673828125,-0.386962890625,-8.25,25.875,-4.5625,36.58203125
634,-0.79833984375,0.0673828125,-0.386962890625,-8.25,25.875,-4.5625,36.58203125
636,-0.79833984375,0.0673828125,-0.386962890625,-8.25,26.5625,-4.25,36.58203125
638,-0.803466796875,0.06787109375,-0.391845703125,-6.6875,26.5625,-4.25,36.58203125
640,-0.803466796875,0.06787109375,-0.391845703125,-6.6875,26.5625,-4.25,36.58203125
642,-0.806884765625,0.06787109375,-0.399658203125,-4.625,27.25,-3.8125,36.58203125
644,-0.806884765625,0.06787109375,-0.399658203125,-4.625,27.25,-3.8125,36.58203125
646,-0.809814453125,0.068359375,-0.406494140625,-2.25,27.75,-3.5625,36.58203125
648,-0.809814453125,0.068359375,-0.406494140625,-2.25,27.75,-3.5625,36.58203125
650,-0.8095703125,0.0703125,-0.41357421875,0.25,28.25,-3.5625,36.58203125
652,-0.8095703125,0.0703125,-0.41357421875,0.25,28.25,-3.5625,36.58203125
655,-0.8076171875,0.073486328125,-0.4208984375,2.6875,28.6875,-3.5625,36.58203125
656,-0.8076171875,0.073486328125,-0.4208984375,2.6875,28.6875,-3.5625,36.58203125
658,-0.8076171875,0.073486328125,-0.4306640625,4.6875,29.125,-3.375,36.58203125
660,-0.8046875,0.07421875,-0.4306640625,4.6875,29.125,-3.375,36.58203125
662,-0.8046875,0.07421875,-0.4306640625,4.6875,29.125,-3.375,36.58203125
664,-0.800048828125,0.07470703125,-0.441162109375,6.5,29.5,-3.125,36.58203125
666,-0.800048828125,0.07470703125,-0.441162109375,6.5,29.5,-3.125,36.58203125
668,-0.799072265625,0.072265625,-0.44970703125,8.125,29.8125,-2.8125,36.58203125
670,-0.799072265625,0.072265625,-0.44970703125,8.125,29.8125,-2.8125,36.58203125
672,-0.80078125,0.070556640625,-0.458251953125,9.4375,29.9375,-2.3125,36.58203125
675,-0.80078125,0.070556640625,-0.458251953125,9.4375,29.9375,-2.3125,36.58203125
677,-0.802734375,0.072509765625,-0.467041015625,10.9375,29.5625,-2.125,36.58203125
679,-0.802734375,0.072509765625,-0.467041015625,10.9375,29.5625,-2.125,36.58203125
681,-0.80078125,0.076171875,-0.47216796875,12.3125,29.3125,-2.1875,36.58203125
683,-0.80078125,0.076171875,-0.47216796875,12.3125,29.3125,-2.1875,36.58203125
685,-0.80078125,0.076171875,-0.47607421875,13.3125,28.8125,-2.375,36.58203125
687,-0.796142578125,0.079833984375,-0.47607421875,13.3125,28.8125,-2.375,36.58203125
689,-0.796142578125,0.079833984375,-0.47607421875,13.3125,28.8125,-2.375,36.58203125
691,-0.788818359375,0.0830078125,-0.4833984375,14.25,28.5,-2.625,36.58203125
693,-0.788818359375,0.0830078125,-0.4833984375,14.25,28.5,-2.625,36.58203125
695,-0.784423828125,0.085693359375,-0.49267578125,15.4375,28.5625,-2.875,36.58203125
697,-0.784423828125,0.085693359375,-0.49267578125,15.4375,28.5625,-2.875,36.58203125
699,-0.77978515625,0.0888671875,-0.498779296875,16.6875,28.3125,-3.0625,36.58203125
701,-0.77978515625,0.0888671875,-0.498779296875,16.6875,28.3125,-3.0625,36.58203125
703,-0.775146484375,0.090087890625,-0.501220703125,17.8125,28.4375,-3.125,36.58203125
705,-0.775146484375,0.090087890625,-0.501220703125,17.8125,28.4375,-3.125,36.58203125
707,-0.775146484375,0.090087890625,-0.501220703125,17.8125,28.4375,-3.125,36.58203125
709,-0.773681640625,0.089111328125,-0.503173828125,18.875,28.5625,-3.375,36.58203125
711,-0.773681640625,0.089111328125,-0.503173828125,18.875,28.5625,-3.375,36.58203125
713,-0.773681640625,0.087158203125,-0.504638671875,20.0625,28.5,-3.5625,36.58203125
717,-0.77490234375,0.086181640625,-0.50439453125,21.125,28.25,-3.9375,36.58203125
719,-0.77490234375,0.086181640625,-0.50439453125,21.125,28.25,-3.9375,36.58203125
721,-0.772705078125,0.083251953125,-0.506591796875,22.75,28.25,-4.5,36.58203125
723,-0.772705078125,0.083251953125,-0.506591796875,22.75,28.25,-4.5,36.58203125
726,-0.7666015625,0.07958984375,-0.503662109375,24.375,28.3125,-4.6875,36.58203125
727,-0.7666015625,0.07958984375,-0.503662109375,24.375,28.3125,-4.6875,36.58203125
730,-0.76025390625,0.0791015625,-0.49853515625,25.5625,28.1875,-5.0625,36.58203125
731,-0.76025390625,0.0791015625,-0.49853515625,25.5625,28.1875,-5.0625,36.58203125
733,-0.76025390625,0.0791015625,-0.49853515625,25.5625,28.1875,-5.0625,36.58203125
735,-0.75830078125,0.080078125,-0.493408203125,26.0,28.25,-5.375,36.58203125
737,-0.75830078125,0.080078125,-0.493408203125,26.0,28.25,-5.375,36.58203125
739,-0.758056640625,0.08154296875,-0.48974609375,26.125,28.625,-5.625,36.58203125
741,-0.758056640625,0.08154296875,-0.48974609375,26.125,28.625,-5.625,36.58203125
743,-0.759033203125,0.084716796875,-0.489501953125,25.5625,29.625,-5.875,36.58203125
745,-0.759033203125,0.084716796875,-0.489501953125,25.5625,29.625,-5.875,36.58203125
747,-0.75830078125,0.08740234375,-0.489990234375,24.875,30.4375,-6.1875,36.58203125
749,-0.75830078125,0.08740234375,-0.489990234375,24.875,30.4375,-6.1875,36.58203125
751,-0.75830078125,0.08740234375,-0.489990234375,24.875,30.4375,-6.1875,36.58203125
753,-0.755859375,0.08984375,-0.4921875,23.875,30.875,-6.3125,36.58203125
755,-0.755859375,0.08984375,-0.4921875,23.875,30.875,-6.3125,36.58203125
757,-0.75244140625,0.092041015625,-0.492431640625,22.1875,30.9375,-6.4375,36.58203125
759,-0.75244140625,0.092041015625,-0.492431640625,22.1875,30.9375,-6.4375,36.58203125
761,-0.748779296875,0.0927734375,-0.489013671875,20.125,31.0625,-6.5,36.58203125
763,-0.748779296875,0.0927734375,-0.489013671875,20.125,31.0625,-6.5,36.58203125
765,-0.7451171875,0.091064453125,-0.485107421875,17.4375,31.375,-6.375,36.58203125
767,-0.7451171875,0.091064453125,-0.485107421875,17.4375,31.375,-6.375,36.58203125
769,-0.7451171875,0.091064453125,-0.485107421875,14.5625,32.5625,-6.5625,36.58203125
771,-0.739501953125,0.081787109375,-0.48583984375,14.5625,32.5625,-6.5625,36.58203125
773,-0.739501953125,0.081787109375,-0.48583984375,14.5625,32.5625,-6.5625,36.58203125
775,-0.74853515625,0.07568359375,-0.494384765625,11.8125,34.1875,-7.1875,36.58203125
777,-0.74853515625,0.07568359375,-0.494384765625,11.8125,34.1875,-7.1875,36.58203125
779,-0.7607421875,0.078125,-0.509521484375,10.0625,35.875,-7.125,36.58203125
781,-0.7607421875,0.078125,-0.509521484375,10.0625,35.875,-7.125,36.58203125
783,-0.756591796875,0.073486328125,-0.5234375,9.3125,36.9375,-7.3125,36.58203125
785,-0.756591796875,0.073486328125,-0.5234375,9.3125,36.9375,-7.3125,36.58203125
787,-0.756591796875,0.073486328125,-0.5234375,9.3125,36.9375,-7.25,36.58203125
789,-0.75634765625,0.07080078125,-0.5380859375,8.9375,36.9375,-7.25,36.58203125
791,-0.75634765625,0.07080078125,-0.5380859375,8.9375,36.6875,-7.1875,36.58203125
794,-0.758056640625,0.06787109375,-0.548828125,8.75,36.6875,-7.1875,36.58203125
795,-0.758056640625,0.06787109375,-0.548828125,8.75,36.6875,-7.1875,36.58203125
797,-0.7646484375,0.0654296875,-0.563232421875,8.5625,36.625,-7.125,36.58203125
799,-0.7646484375,0.0654296875,-0.563232421875,8.5625,36.625,-7.125,36.58203125
801,-0.77001953125,0.06396484375,-0.57763671875,8.75,36.625,-7.375,36.58203125
803,-0.77001953125,0.06396484375,-0.57763671875,8.75,36.625,-7.375,36.58203125
805,-0.771728515625,0.065185546875,-0.593505859375,9.125,36.125,-7.6875,36.58203125
807,-0.771728515625,0.065185546875,-0.593505859375,9.125,36.125,-7.6875,36.58203125
809,-0.771728515625,0.06494140625,-0.60302734375,9.9375,35.0,-7.8125,36.58203125
811,-0.771240234375,0.06494140625,-0.60302734375,9.9375,35.0,-7.8125,36.58203125
813,-0.771240234375,0.06494140625,-0.60302734375,9.9375,33.5625,-7.9375,36.58203125
815,-0.769287109375,0.061767578125,-0.606201171875,11.125,33.5625,-7.9375,36.58203125
817,-0.769287109375,0.061767578125,-0.606201171875,11.125,33.5625,-7.9375,36.58203125
819,-0.77197265625,0.059814453125,-0.601806640625,11.9375,32.4375,-7.6875,36.58203125
821,-0.77197265625,0.059814453125,-0.601806640625,11.9375,32.4375,-7.6875,36.58203125
823,-0.773681640625,0.060791015625,-0.5947265625,12.25,32.125,-7.5,36.58203125
825,-0.773681640625,0.060791015625,-0.5947265625,12.25,32.125,-7.5,36.58203125
827,-0.775390625,0.061279296875,-0.593994140625,12.625,32.0,-7.25,36.58203125
829,-0.775390625,0.061279296875,-0.593994140625,12.625,32.0,-7.25,36.58203125
831,-0.775390625,0.061279296875,-0.593994140625,12.625,32.0,-7.25,36.58203125
833,-0.780029296875,0.06201171875,-0.59619140625,13.3125,31.6875,-6.9375,36.60546875
835,-0.780029296875,0.06201171875,-0.59619140625,13.3125,31.6875,-6.9375,36.60546875
837,-0.787841796875,0.06005859375,-0.595947265625,14.3125,31.6875,-6.625,36.60546875
839,-0.787841796875,0.06005859375,-0.595947265625,14.3125,31.6875,-6.625,36.60546875
841,-0.791748046875,0.059814453125,-0.5986328125,15.5,31.8125,-5.875,36.60546875
843,-0.791748046875,0.059814453125,-0.5986328125,15.5,31.8125,-5.875,36.60546875
845,-0.794189453125,0.0556640625,-0.59912109375,16.8125,31.5,-4.75,36.60546875
847,-0.794189453125,0.0556640625,-0.59912109375,16.8125,31.5,-4.75,36.60546875
849,-0.799072265625,0.04833984375,-0.5986328125,17.4375,31.4375,-3.5625,36.60546875
852,-0.799072265625,0.04833984375,-0.5986328125,17.4375,31.4375,-3.5625,36.60546875
854,-0.807373046875,0.047119140625,-0.600341796875,18.0,31.5625,-3.0,36.60546875
855,-0.807373046875,0.047119140625,-0.600341796875,18.0,31.5625,-3.0,36.60546875
858,-0.816162109375,0.046142578125,-0.60791015625,18.5625,31.75,-2.125,36.60546875
860,-0.816162109375,0.046142578125,-0.60791015625,18.5625,31.75,-2.125,36.60546875
862,-0.816162109375,0.046142578125,-0.60791015625,18.5625,31.75,-2.125,36.60546875
864,-0.817138671875,0.044189453125,-0.615966796875,19.1875,31.6875,-1.0625,36.60546875
866,-0.817138671875,0.044189453125,-0.615966796875,19.1875,31.6875,-1.0625,36.60546875
868,-0.8154296875,0.042236328125,-0.629150390625,20.25,31.5,-0.375,36.60546875
870,-0.8154296875,0.042236328125,-0.629150390625,20.25,31.5,-0.375,36.60546875
871,-0.814208984375,0.04443359375,-0.643798828125,21.375,32.0,-0.625,36.60546875
873,-0.814208984375,0.04443359375,-0.643798828125,21.375,32.0,-0.625,36.60546875
876,-0.8154296875,0.03759765625,-0.6572265625,21.75,33.4375,-1.5625,36.60546875
878,-0.8154296875,0.03759765625,-0.6572265625,21.75,33.4375,-1.5625,36.60546875
880,-0.822509765625,0.03564453125,-0.6689453125,22.5,33.8125,-1.5,36.60546875
888,-0.822509765625,0.03564453125,-0.6689453125,22.5,33.8125,-1.5,36.60546875
890,-0.82373046875,0.04541015625,-0.681884765625,22.0625,32.0,-0.5625,36.60546875
892,-0.82373046875,0.04541015625,-0.681884765625,22.0625,32.0,-0.5625,36.60546875
894,-0.816650390625,0.0439453125,-0.690673828125,21.5,31.0,-0.4375,36.60546875
897,-0.816650390625,0.0439453125,-0.690673828125,21.5,31.0,-0.4375,36.60546875
899,-0.817138671875,0.04345703125,-0.692626953125,20.5625,29.9375,0.0,36.60546875
903,-0.817138671875,0.04345703125,-0.692626953125,20.5625,29.9375,0.0,36.60546875
905,-0.82080078125,0.04248046875,-0.683349609375,18.75,29.75,0.375,36.60546875
907,-0.82861328125,0.04296875,-0.673095703125,15.75,30.5,0.5,36.60546875
909,-0.82861328125,0.04296875,-0.673095703125,15.75,30.5,0.5,36.60546875
912,-0.82861328125,0.04296875,-0.673095703125,15.75,30.5,0.5,36.60546875
914,-0.837158203125,0.04248046875,-0.668701171875,12.1875,31.5,0.5,36.60546875
918,-0.841064453125,0.04296875,-0.6708984375,8.0,32.4375,0.5625,36.60546875
920,-0.841064453125,0.044677734375,-0.675537109375,3.875,32.75,0.1875,36.60546875
922,-0.84326171875,0.044677734375,-0.675537109375,3.875,32.75,0.1875,36.60546875
924,-0.84326171875,0.044677734375,-0.675537109375,3.875,32.75,0.1875,36.60546875
927,-0.8447265625,0.0439453125,-0.681640625,-0.5,32.75,-0.125,36.60546875
929,-0.8447265625,0.042236328125,-0.689453125,-4.75,32.4375,0.125,36.60546875
933,-0.8447265625,0.042236328125,-0.689453125,-4.75,32.4375,0.125,36.60546875
935,-0.8486328125,0.045654296875,-0.69482421875,-8.75,32.1875,0.3125,36.60546875
937,-0.8486328125,0.045654296875,-0.69482421875,-8.75,32.1875,0.3125,36.60546875
939,-0.85205078125,0.039794921875,-0.698974609375,-13.125,32.5,0.5,36.60546875
942,-0.85205078125,0.039794921875,-0.698974609375,-13.125,32.5,0.5,36.60546875
945,-0.854248046875,0.031494140625,-0.707275390625,-16.8125,32.875,1.125,36.60546875
948,-0.856201171875,0.026611328125,-0.711181640625,-20.1875,33.1875,1.8125,36.60546875
950,-0.856201171875,0.026611328125,-0.711181640625,-20.1875,33.1875,1.8125,36.60546875
952,-0.858154296875,0.023193359375,-0.7158203125,-23.6875,33.5,2.5625,36.60546875
954,-0.858154296875,0.023193359375,-0.7158203125,-23.6875,33.5,2.5625,36.60546875
957,-0.862060546875,0.015380859375,-0.72216796875,-26.75,33.6875,3.1875,36.60546875
959,-0.862060546875,0.015380859375,-0.72216796875,-26.75,33.6875,3.1875,36.60546875
963,-0.8642578125,0.01025390625,-0.726806640625,-29.0625,33.875,3.75,36.60546875
965,-0.86572265625,0.00927734375,-0.736328125,-30.6875,34.25,4.3125,36.60546875
967,-0.86572265625,0.00927734375,-0.736328125,-30.6875,34.25,4.3125,36.60546875
969,-0.863525390625,0.004638671875,-0.751220703125,-31.9375,34.75,4.625,36.60546875
972,-0.863525390625,0.004638671875,-0.751220703125,-31.9375,34.75,4.625,36.60546875
975,-0.857666015625,0.007080078125,-0.7666015625,-32.125,34.875,4.5625,36.609375
978,-0.857666015625,0.007080078125,-0.7666015625,-32.125,34.875,4.8125,36.609375
980,-0.851806640625,0.009521484375,-0.782470703125,-31.75,35.375,4.8125,36.609375
982,-0.84326171875,0.010498046875,-0.79931640625,-30.375,36.4375,5.5,36.609375
984,-0.84326171875,0.010498046875,-0.79931640625,-30.375,36.4375,5.5,36.609375
986,-0.84326171875,0.010498046875,-0.79931640625,-30.375,36.4375,6.125,36.609375
988,-0.841796875,0.017822265625,-0.8212890625,-28.125,37.3125,6.125,36.609375
990,-0.841796875,0.017822265625,-0.8212890625,-28.125,37.3125,6.125,36.609375
992,-0.835205078125,0.023681640625,-0.846923828125,-25.125,37.625,6.5,36.609375
994,-0.835205078125,0.023681640625,-0.846923828125,-25.125,37.625,6.5,36.609375
996,-0.82177734375,0.0234375,-0.868896484375,-20.5625,37.25,6.5,36.609375
998,-0.82177734375,0.0234375,-0.868896484375,-20.5625,37.25,6.5,36.609375
1000,-0.83837890625,0.030029296875,-0.89697265625,-16.5,36.8125,6.75,36.609375
1002,-0.83837890625,0.030029296875,-0.89697265625,-16.5,36.8125,6.75,36.609375
1004,-0.83837890625,0.030029296875,-0.89697265625,-16.5,36.8125,6.75,36.609375
1006,-0.83447265625,0.03759765625,-0.901123046875,-12.4375,36.4375,6.6875,36.609375
1007,-0.83447265625,0.03759765625,-0.901123046875,-12.4375,36.4375,6.6875,36.609375
1009,-0.819091796875,0.034912109375,-0.897216796875,-8.125,35.6875,6.3125,36.609375
1011,-0.819091796875,0.034912109375,-0.897216796875,-8.125,35.6875,6.3125,36.609375
1013,-0.814208984375,0.041748046875,-0.8994140625,-5.0,34.5625,5.75,36.609375
1015,-0.814208984375,0.041748046875,-0.8994140625,-5.0,34.5625,5.75,36.609375
1017,-0.814208984375,0.041748046875,-0.8994140625,-5.0,34.5625,5.75,36.609375
1019,-0.8115234375,0.043701171875,-0.899169921875,-3.0,32.9375,5.0,36.609375
1021,-0.8115234375,0.043701171875,-0.899169921875,-3.0,32.9375,5.0,36.609375
1023,-0.80810546875,0.04931640625,-0.894287109375,-1.375,32.25,4.375,36.609375
1025,-0.80810546875,0.04931640625,-0.894287109375,-1.375,32.25,4.375,36.609375
1027,-0.799072265625,0.05126953125,-0.892578125,-0.1875,31.75,3.6875,36.609375
1029,-0.799072265625,0.05126953125,-0.892578125,-0.1875,31.75,3.6875,36.609375
1031,-0.78662109375,0.05859375,-0.8876953125,1.0625,30.9375,3.25,36.609375
1033,-0.78662109375,0.05859375,-0.8876953125,1.0625,30.9375,3.25,36.609375
1035,-0.78662109375,0.05859375,-0.8876953125,1.0625,30.9375,3.25,36.609375
1037,-0.775390625,0.066650390625,-0.88720703125,2.6875,29.25,2.6875,36.609375
1039,-0.775390625,0.066650390625,-0.88720703125,2.6875,29.25,2.6875,36.609375
1041,-0.78955078125,0.053466796875,-0.892822265625,2.3125,27.8125,1.8125,36.609375
1043,-0.78955078125,0.053466796875,-0.892822265625,2.3125,27.8125,1.8125,36.609375
1045,-0.781982421875,0.058837890625,-0.89501953125,2.375,27.0625,1.0625,36.609375
1047,-0.781982421875,0.058837890625,-0.89501953125,2.375,27.0625,1.0625,36.609375
1049,-0.761474609375,0.063232421875,-0.90185546875,4.0625,26.3125,0.75,36.609375
1051,-0.761474609375,0.063232421875,-0.90185546875,4.0625,26.3125,0.75,36.609375
1053,-0.761474609375,0.000732421875,-0.901123046875,5.1875,25.1875,0.3125,36.609375
1055,-0.758056640625,0.059814453125,-0.901123046875,5.1875,25.1875,0.3125,36.609375
1057,-0.758056640625,0.059814453125,-0.901123046875,5.1875,25.1875,0.3125,36.609375
1059,-0.758544921875,0.053466796875,-0.889892578125,5.4375,24.125,0.3125,36.609375
1061,-0.758544921875,0.053466796875,-0.889892578125,5.4375,24.125,0.3125,36.609375
1063,-0.75341796875,0.052490234375,-0.879638671875,5.4375,23.0625,0.25,36.609375
1065,-0.75341796875,0.052490234375,-0.879638671875,5.4375,23.0625,0.25,36.609375
1067,-0.7470703125,0.05419921875,-0.874755859375,5.4375,22.625,0.375,36.609375
1069,-0.7470703125,0.05419921875,-0.874755859375,5.4375,22.625,0.375,36.609375
1071,-0.735107421875,0.055419921875,-0.87451171875,5.5625,22.625,0.625,36.609375
1073,-0.735107421875,0.055419921875,-0.87451171875,5.5625,22.625,0.625,36.609375
1075,-0.724365234375,0.05712890625,-0.87841796875,5.375,22.3125,0.6875,36.609375
1077,-0.724365234375,0.05712890625,-0.87841796875,5.375,22.3125,0.6875,36.609375
1079,-0.724365234375,0.05712890625,-0.87841796875,5.375,22.3125,0.5625,36.609375
1081,-0.71484375,0.060302734375,-0.88427734375,4.75,21.9375,0.5625,36.609375
1083,-0.71484375,0.060302734375,-0.88427734375,4.75,21.9375,0.5625,36.609375
1085,-0.706298828125,0.059814453125,-0.890869140625,3.6875,21.4375,0.375,36.609375
1087,-0.706298828125,0.059814453125,-0.890869140625,3.6875,21.4375,0.375,36.609375
1089,-0.69921875,0.059326171875,-0.898681640625,2.125,21.0625,0.625,36.609375
1091,-0.69921875,0.059326171875,-0.898681640625,2.125,21.0625,0.625,36.609375
1093,-0.690673828125,0.060546875,-0.9052734375,0.5,20.8125,0.75,36.609375
1095,-0.690673828125,0.060546875,-0.9052734375,0.5,20.8125,0.75,36.609375
1097,-0.690673828125,0.060546875,-0.9052734375,-1.0,20.75,1.125,36.609375
1099,-0.68359375,0.060302734375,-0.913330078125,-1.0,20.75,1.125,36.609375
1101,-0.68359375,0.060302734375,-0.913330078125,-1.0,20.75,1.125,36.609375
1103,-0.67724609375,0.05908203125,-0.923828125,-2.1875,20.3125,1.125,36.609375
1105,-0.67724609375,0.05908203125,-0.923828125,-2.1875,20.3125,1.125,36.609375
1107,-0.671142578125,0.0625,-0.93603515625,-3.5,19.75,1.375,36.609375
1109,-0.671142578125,0.0625,-0.93603515625,-3.5,19.75,1.375,36.609375
1111,-0.66796875,0.0615234375,-0.94873046875,-4.3125,18.75,1.5625,36.609375
1113,-0.66796875,0.0615234375,-0.94873046875,-4.3125,18.75,1.5625,36.609375
1115,-0.665283203125,0.058349609375,-0.9580078125,-5.0,17.875,1.6875,36.59765625
1117,-0.665283203125,0.058349609375,-0.9580078125,-5.0,17.875,1.6875,36.59765625
1119,-0.665283203125,0.058349609375,-0.96337890625,-6.125,17.25,1.75,36.59765625
1121,-0.659912109375,0.0615234375,-0.96337890625,-6.125,17.25,1.75,36.59765625
1123,-0.659912109375,0.0615234375,-0.96337890625,-6.125,17.25,1.75,36.59765625
1125,-0.658447265625,0.0673828125,-0.968017578125,-7.5625,16.125,1.6875,36.59765625
1127,-0.658447265625,0.0673828125,-0.968017578125,-7.5625,16.125,1.6875,36.59765625
1129,-0.6552734375,0.073486328125,-0.96875,-9.5625,14.75,1.6875,36.59765625
1131,-0.6552734375,0.073486328125,-0.96875,-9.5625,14.75,1.6875,36.59765625
1133,-0.650146484375,0.07763671875,-0.9716796875,-11.3125,12.875,1.75,36.59765625
1135,-0.650146484375,0.07763671875,-0.9716796875,-11.3125,12.875,1.75,36.59765625
1137,-0.6474609375,0.0791015625,-0.981689453125,-12.4375,10.875,1.875,36.59765625
1139,-0.6474609375,0.0791015625,-0.981689453125,-12.4375,10.875,1.875,36.59765625
1141,-0.6474609375,0.0791015625,-0.981689453125,-12.4375,10.875,1.875,36.59765625
1143,-0.64599609375,0.0771484375,-0.993408203125,-14.0625,9.3125,2.375,36.59765625
1145,-0.64599609375,0.0771484375,-0.993408203125,-14.0625,9.3125,2.375,36.59765625
1146,-0.64306640625,0.07470703125,-1.001953125,-15.5625,8.8125,3.0625,36.59765625
1148,-0.64306640625,0.07470703125,-1.001953125,-15.5625,8.8125,3.0625,36.59765625
1150,-0.64013671875,0.0732421875,-1.013427734375,-15.6875,8.375,3.5,36.59765625
1152,-0.64013671875,0.0732421875,-1.013427734375,-15.6875,8.375,3.5,36.59765625
1154,-0.64013671875,0.0732421875,-1.013427734375,-15.6875,8.375,3.5,36.59765625
1157,-0.6435546875,0.075927734375,-1.029296875,-14.5,7.8125,3.6875,36.59765625
1158,-0.6435546875,0.075927734375,-1.029296875,-14.5,7.8125,3.6875,36.59765625
1160,-0.64892578125,0.07958984375,-1.04736328125,-11.625,6.75,3.75,36.59765625
1162,-0.64892578125,0.07958984375,-1.04736328125,-11.625,6.75,3.75,36.59765625
1164,-0.65234375,0.083984375,-1.06201171875,-8.0625,5.25,3.75,36.59765625
1166,-0.65234375,0.083984375,-1.06201171875,-8.0625,5.25,3.75,36.59765625
1168,-0.65380859375,0.091552734375,-1.072509765625,-4.375,3.25,3.5,36.59765625
1170,-0.65380859375,0.091552734375,-1.072509765625,-4.375,3.25,3.5,36.59765625
1172,-0.65380859375,0.091552734375,-1.072509765625,-4.375,3.25,3.5,36.59765625
1174,-0.654052734375,0.100830078125,-1.082763671875,-0.875,0.625,3.1875,36.59765625
1176,-0.654052734375,0.100830078125,-1.082763671875,-0.875,0.625,3.1875,36.59765625
1178,-0.65478515625,0.1025390625,-1.091796875,2.375,-2.75,3.25,36.59765625
1180,-0.65478515625,0.1025390625,-1.091796875,2.375,-2.75,3.25,36.59765625
1182,-0.665283203125,0.10009765625,-1.094970703125,4.1875,-5.875,3.375,36.59765625
1184,-0.665283203125,0.10009765625,-1.094970703125,4.1875,-5.875,3.375,36.59765625
1186,-0.677978515625,0.09912109375,-1.096435546875,4.4375,-8.5,3.3125,36.59765625
1188,-0.677978515625,0.09912109375,-1.096435546875,4.4375,-8.5,3.3125,36.59765625
1190,-0.677978515625,0.09912109375,-1.096435546875,4.4375,-8.5,3.3125,36.59765625
1191,-0.685302734375,0.10107421875,-1.09716796875,3.25,-10.875,3.5,36.59765625
1194,-0.685302734375,0.10107421875,-1.09716796875,3.25,-10.875,3.5,36.59765625
1195,-0.68798828125,0.100341796875,-1.09716796875,0.375,-13.4375,3.625,36.59765625
1197,-0.68798828125,0.100341796875,-1.09716796875,0.375,-13.4375,3.625,36.59765625
1199,-0.69140625,0.095947265625,-1.094970703125,-4.0,-16.0625,4.0,36.59765625
1202,-0.69140625,0.095947265625,-1.094970703125,-4.0,-16.0625,4.0,36.59765625
1204,-0.69677734375,0.089599609375,-1.09716796875,-9.625,-17.8125,4.5625,36.59765625
1206,-0.69677734375,0.089599609375,-1.09716796875,-9.625,-17.8125,4.5625,36.59765625
1207,-0.69677734375,0.089599609375,-1.09716796875,-9.625,-17.8125,4.5625,36.59765625
1209,-0.701904296875,0.078369140625,-1.101806640625,-15.875,-19.0625,5.25,36.59765625
1211,-0.701904296875,0.078369140625,-1.101806640625,-15.875,-19.0625,5.25,36.59765625
1213,-0.709228515625,0.068359375,-1.10986328125,-21.5625,-19.8125,6.125,36.59765625
1215,-0.709228515625,0.068359375,-1.10986328125,-21.5625,-19.8125,6.125,36.59765625
1217,-0.71337890625,0.06103515625,-1.11865234375,-26.1875,-20.75,6.8125,36.59765625
1219,-0.71337890625,0.06103515625,-1.11865234375,-26.1875,-20.75,6.8125,36.59765625
1221,-0.71337890625,0.06103515625,-1.11865234375,-26.1875,-22.125,7.5625,36.59765625
1223,-0.7158203125,0.052001953125,-1.123291015625,-29.5625,-22.125,7.5625,36.59765625
1225,-0.7158203125,0.052001953125,-1.123291015625,-29.5625,-22.125,7.5625,36.59765625
1227,-0.7158203125,0.04296875,-1.12548828125,-31.375,-23.6875,8.6875,36.59765625
1229,-0.7158203125,0.04296875,-1.12548828125,-31.375,-23.6875,8.6875,36.59765625
1231,-0.718994140625,0.04150390625,-1.13134765625,-31.75,-25.125,9.6875,36.59765625
1233,-0.718994140625,0.04150390625,-1.13134765625,-31.75,-25.125,9.6875,36.59765625
1235,-0.723388671875,0.0400390625,-1.134033203125,-30.4375,-26.875,10.5625,36.59765625
1237,-0.723388671875,0.0400390625,-1.134033203125,-30.4375,-26.875,10.5625,36.59765625
1239,-0.71923828125,0.042236328125,-1.13623046875,-27.875,-28.0625,11.8125,36.59765625
1241,-0.71923828125,0.042236328125,-1.13623046875,-27.875,-28.0625,11.8125,36.59765625
1243,-0.71923828125,0.042236328125,-1.13623046875,-27.875,-28.0625,11.8125,36.59765625
1245,-0.71533203125,0.0498046875,-1.126953125,-23.9375,-29.1875,13.0,36.59765625
1247,-0.71533203125,0.0498046875,-1.126953125,-23.9375,-29.1875,13.0,36.59765625
1249,-0.72021484375,0.06494140625,-1.112060546875,-20.0,-31.75,13.75,36.59765625
1251,-0.72021484375,0.06494140625,-1.112060546875,-20.0,-31.75,13.75,36.59765625
1253,-0.716796875,0.07568359375,-1.089599609375,-16.8125,-34.125,14.25,36.59765625
1255,-0.716796875,0.07568359375,-1.089599609375,-16.8125,-34.125,14.25,36.59765625
1257,-0.7099609375,0.08544921875,-1.0576171875,-14.3125,-36.125,14.625,36.609375
1259,-0.7099609375,0.08544921875,-1.0576171875,-14.3125,-36.125,14.625,36.609375
1261,-0.7099609375,0.08544921875,-1.0576171875,-14.3125,-36.125,14.625,36.609375
1262,-0.705810546875,0.098876953125,-1.023681640625,-13.125,-37.625,15.375,36.609375
1264,-0.705810546875,0.098876953125,-1.023681640625,-13.125,-37.625,15.375,36.609375
1267,-0.7001953125,0.115234375,-0.99365234375,-13.875,-38.5,16.1875,36.609375
1269,-0.7001953125,0.115234375,-0.99365234375,-13.875,-38.5,16.1875,36.609375
1271,-0.694580078125,0.12841796875,-0.970947265625,-16.4375,-39.25,16.875,36.609375
1273,-0.694580078125,0.12841796875,-0.970947265625,-16.4375,-39.25,16.875,36.609375
1274,-0.690673828125,0.139404296875,-0.95849609375,-19.5,-40.1875,17.4375,36.609375
1276,-0.690673828125,0.139404296875,-0.95849609375,-19.5,-40.1875,17.4375,36.609375
1278,-0.690673828125,0.139404296875,-0.95849609375,-19.5,-40.1875,17.4375,36.609375
1280,-0.687744140625,0.14794921875,-0.954345703125,-21.875,-41.375,17.9375,36.609375
1282,-0.687744140625,0.14794921875,-0.954345703125,-21.875,-41.375,17.9375,36.609375
1284,-0.67578125,0.1533203125,-0.946044921875,-21.75,-43.625,18.0,36.609375
1286,-0.67578125,0.1533203125,-0.946044921875,-21.75,-43.625,18.0,36.609375
1288,-0.68115234375,0.151611328125,-0.95751953125,-20.0,-47.9375,17.5625,36.609375
1290,-0.68115234375,0.151611328125,-0.95751953125,-20.0,-47.9375,17.5625,36.609375
1292,-0.69140625,0.154052734375,-0.962158203125,-23.8125,-49.9375,17.0625,36.609375
1294,-0.69140625,0.154052734375,-0.962158203125,-23.8125,-49.9375,17.0625,36.609375
1296,-0.69140625,0.154052734375,-0.962158203125,-23.8125,-49.9375,17.0625,36.609375
1298,-0.671630859375,0.138916015625,-0.957763671875,-27.8125,-51.0625,16.75,36.609375
1300,-0.671630859375,0.138916015625,-0.957763671875,-27.8125,-51.0625,16.75,36.609375
1302,-0.65283203125,0.13427734375,-0.962158203125,-30.625,-51.9375,16.8125,36.609375
1304,-0.65283203125,0.13427734375,-0.962158203125,-30.625,-51.9375,16.8125,36.609375
1306,-0.645263671875,0.12890625,-0.966552734375,-32.5625,-52.8125,16.4375,36.609375
1308,-0.645263671875,0.12890625,-0.966552734375,-32.5625,-52.8125,16.4375,36.609375
1311,-0.645751953125,0.115966796875,-0.969482421875,-34.875,-52.9375,16.125,36.609375
1313,-0.645751953125,0.115966796875,-0.969482421875,-34.875,-52.9375,16.125,36.609375
1314,-0.63916015625,0.103271484375,-0.968994140625,-37.1875,-52.3125,16.1875,36.609375
1316,-0.63916015625,0.103271484375,-0.968994140625,-37.1875,-52.3125,16.1875,36.609375
1318,-0.63916015625,0.103271484375,-0.968994140625,-37.1875,-52.3125,16.3125,36.609375
1320,-0.632080078125,0.096923828125,-0.973388671875,-38.5,-51.8125,16.3125,36.609375
1322,-0.632080078125,0.096923828125,-0.973388671875,-38.5,-51.8125,16.3125,36.609375
1324,-0.63037109375,0.10302734375,-0.98876953125,-38.0625,-51.4375,15.4375,36.609375
1326,-0.63037109375,0.10302734375,-0.98876953125,-38.0625,-51.4375,15.4375,36.609375
1328,-0.625244140625,0.11474609375,-1.00390625,-35.875,-52.125,14.125,36.609375
1330,-0.625244140625,0.11474609375,-1.00390625,-35.875,-52.125,14.125,36.609375
1332,-0.62109375,0.120849609375,-1.0068359375,-33.625,-53.5,12.6875,36.609375
1334,-0.62109375,0.120849609375,-1.0068359375,-33.625,-53.5,12.6875,36.609375
1336,-0.6162109375,0.1279296875,-0.994140625,-32.25,-54.9375,11.625,36.609375
1338,-0.6162109375,0.1279296875,-0.994140625,-32.25,-54.9375,11.625,36.609375
1340,-0.6162109375,0.1279296875,-0.994140625,-32.25,-54.9375,11.625,36.609375
1342,-0.600341796875,0.132568359375,-0.97216796875,-31.3125,-56.8125,11.125,36.609375
1344,-0.600341796875,0.132568359375,-0.97216796875,-31.3125,-56.8125,11.125,36.609375
1346,-0.593994140625,0.135009765625,-0.95166015625,-31.0625,-59.3125,11.0625,36.609375
1348,-0.593994140625,0.135009765625,-0.95166015625,-31.0625,-59.3125,11.0625,36.609375
1350,-0.604248046875,0.1337890625,-0.93115234375,-31.0625,-62.5,11.25,36.609375
1351,-0.604248046875,0.1337890625,-0.93115234375,-31.0625,-62.5,11.25,36.609375
1354,-0.604248046875,0.1337890625,-0.90771484375,-30.625,-66.375,11.625,36.609375
1356,-0.620361328125,0.1337890625,-0.90771484375,-30.625,-66.375,11.625,36.609375
1358,-0.620361328125,0.1337890625,-0.90771484375,-30.625,-66.375,11.625,36.609375
1360,-0.629150390625,0.135498046875,-0.882080078125,-29.0,-70.8125,12.0,36.609375
1362,-0.629150390625,0.135498046875,-0.882080078125,-29.0,-70.8125,12.0,36.609375
1363,-0.628662109375,0.13916015625,-0.861083984375,-26.625,-75.625,12.625,36.609375
1365,-0.628662109375,0.13916015625,-0.861083984375,-26.625,-75.625,12.625,36.609375
1367,-0.620849609375,0.14599609375,-0.8447265625,-24.4375,-80.6875,13.1875,36.609375
1369,-0.620849609375,0.14599609375,-0.8447265625,-24.4375,-80.6875,13.1875,36.609375
1371,-0.620849609375,0.14599609375,-0.8447265625,-24.4375,-80.6875,13.1875,36.609375
1373,-0.607666015625,0.153076171875,-0.82568359375,-22.5625,-84.875,14.0,36.609375
1376,-0.607666015625,0.153076171875,-0.82568359375,-22.5625,-84.875,14.0,36.609375
1377,-0.597900390625,0.166015625,-0.802001953125,-22.75,-87.375,14.6875,36.609375
1379,-0.597900390625,0.166015625,-0.802001953125,-22.75,-87.375,14.6875,36.609375
1381,-0.59423828125,0.182861328125,-0.76513671875,-25.625,-88.25,15.5,36.609375
1383,-0.59423828125,0.182861328125,-0.76513671875,-25.625,-88.25,15.5,36.609375
1385,-0.587646484375,0.20361328125,-0.732421875,-32.25,-88.25,15.75,36.609375
1387,-0.587646484375,0.20361328125,-0.732421875,-32.25,-88.25,15.75,36.609375
1389,-0.587646484375,0.20361328125,-0.732421875,-32.25,-88.25,15.75,36.609375
1391,-0.57470703125,0.227294921875,-0.711181640625,-41.25,-87.5,16.25,36.609375
1393,-0.57470703125,0.227294921875,-0.711181640625,-41.25,-87.5,16.25,36.609375
1395,-0.5654296875,0.252197265625,-0.701416015625,-50.875,-86.125,16.375,36.609375
1397,-0.5654296875,0.252197265625,-0.701416015625,-50.875,-86.125,16.375,36.609375
1399,-0.565185546875,0.26806640625,-0.6953125,-59.6875,-84.5,16.0,36.63671875
1401,-0.565185546875,0.26806640625,-0.6953125,-59.6875,-84.5,16.0,36.63671875
1403,-0.5556640625,0.283203125,-0.6884765625,-67.6875,-83.4375,15.0625,36.63671875
1405,-0.5556640625,0.283203125,-0.6884765625,-67.6875,-83.4375,15.0625,36.63671875
1407,-0.5556640625,0.283203125,-0.6884765625,-74.6875,-82.3125,13.5625,36.63671875
1409,-0.537841796875,0.2939453125,-0.6875,-74.6875,-82.3125,13.5625,36.63671875
1411,-0.537841796875,0.2939453125,-0.6875,-74.6875,-82.3125,13.5625,36.63671875
1413,-0.52978515625,0.300537109375,-0.6884765625,-80.125,-81.625,11.4375,36.63671875
1415,-0.52978515625,0.300537109375,-0.6884765625,-80.125,-81.625,11.4375,36.63671875
1417,-0.53076171875,0.301513671875,-0.689208984375,-83.25,-81.3125,9.3125,36.63671875
1419,-0.53076171875,0.301513671875,-0.689208984375,-83.25,-81.3125,9.3125,36.63671875
1421,-0.533203125,0.293212890625,-0.68408203125,-83.4375,-82.0625,7.0,36.63671875
1423,-0.533203125,0.293212890625,-0.68408203125,-83.4375,-82.0625,7.0,36.63671875
1425,-0.533203125,0.282470703125,-0.67236328125,-80.6875,-83.5625,4.1875,36.63671875
1427,-0.533203125,0.282470703125,-0.67236328125,-80.6875,-83.5625,4.1875,36.63671875
1429,-0.533203125,0.282470703125,-0.67236328125,-80.6875,-83.5625,4.1875,36.63671875
1431,-0.533203125,0.267578125,-0.660400390625,-75.8125,-86.125,1.25,36.63671875
1433,-0.533203125,0.267578125,-0.660400390625,-75.8125,-86.125,1.25,36.63671875
1435,-0.539794921875,0.240966796875,-0.646484375,-67.875,-91.0,-1.375,36.63671875
1437,-0.539794921875,0.240966796875,-0.646484375,-67.875,-91.0,-1.375,36.63671875
1438,-0.56201171875,0.20703125,-0.656982421875,-62.1875,-94.1875,-3.1875,36.63671875
1441,-0.56201171875,0.20703125,-0.656982421875,-62.1875,-94.1875,-3.1875,36.63671875
1443,-0.56103515625,0.185546875,-0.64990234375,-56.9375,-94.4375,-4.0625,36.63671875
1445,-0.56103515625,0.185546875,-0.64990234375,-56.9375,-94.4375,-4.0625,36.63671875
1447,-0.56103515625,0.185546875,-0.64990234375,-56.9375,-94.4375,-4.0625,36.63671875
1449,-0.57373046875,0.155517578125,-0.6572265625,-47.1875,-95.5,-5.0,36.63671875
1450,-0.57373046875,0.155517578125,-0.6572265625,-47.1875,-95.5,-5.0,36.63671875
1452,-0.6005859375,0.1220703125,-0.664306640625,-35.5,-97.5625,-5.5,36.63671875
1454,-0.6005859375,0.1220703125,-0.664306640625,-35.5,-97.5625,-5.5,36.63671875
1456,-0.625244140625,0.09619140625,-0.6630859375,-24.1875,-100.625,-5.8125,36.63671875
1458,-0.625244140625,0.09619140625,-0.6630859375,-24.1875,-100.625,-5.8125,36.63671875
1460,-0.625244140625,0.09619140625,-0.6630859375,-8.1875,-105.25,-5.1875,36.63671875
1463,-0.651611328125,0.08447265625,-0.644775390625,-13.6875,-105.25,-5.1875,36.63671875
1464,-0.651611328125,0.08447265625,-0.644775390625,-13.6875,-105.25,-5.1875,36.63671875
1466,-0.662841796875,0.065185546875,-0.652587890625,-4.75,-110.125,-3.4375,36.63671875
1468,-0.662841796875,0.065185546875,-0.652587890625,-4.75,-110.125,-3.4375,36.63671875
1470,-0.631103515625,0.03857421875,-0.64892578125,0.375,-108.0625,-3.75,36.63671875
1472,-0.631103515625,0.03857421875,-0.64892578125,0.375,-108.0625,-3.75,36.63671875
1474,-0.6552734375,0.042724609375,-0.6181640625,2.6875,-108.125,-3.875,36.63671875
1476,-0.6552734375,0.042724609375,-0.6181640625,2.6875,-108.125,-3.875,36.63671875
1478,-0.6552734375,0.105224609375,-0.5869140625,2.0,-109.5625,-3.6875,36.63671875
1480,-0.6689453125,0.08056640625,-0.5869140625,2.0,-109.5625,-3.6875,36.63671875
1482,-0.6689453125,0.08056640625,-0.5869140625,2.0,-109.5625,-3.6875,36.63671875
1484,-0.666259765625,0.12841796875,-0.55322265625,-1.3125,-110.1875,-5.0,36.63671875
1486,-0.666259765625,0.12841796875,-0.55322265625,-1.3125,-110.1875,-5.0,36.63671875
1488,-0.662109375,0.180419921875,-0.510498046875,-7.75,-112.0625,-6.0,36.63671875
1490,-0.662109375,0.180419921875,-0.510498046875,-7.75,-112.0625,-6.0,36.63671875
1492,-0.64404296875,0.22216796875,-0.45751953125,-16.0625,-114.4375,-7.375,36.63671875
1494,-0.64404296875,0.22216796875,-0.45751953125,-16.0625,-114.4375,-7.375,36.63671875
1496,-0.635498046875,0.254150390625,-0.398193359375,-26.125,-116.125,-9.4375,36.63671875
1498,-0.635498046875,0.254150390625,-0.398193359375,-26.125,-116.125,-9.4375,36.63671875
1500,-0.635498046875,0.254150390625,-0.398193359375,-26.125,-116.125,-9.4375,36.63671875
1502,-0.638671875,0.2861328125,-0.335205078125,-36.5625,-117.0,-10.8125,36.63671875
1504,-0.638671875,0.2861328125,-0.335205078125,-36.5625,-117.0,-10.8125,36.63671875
1506,-0.631103515625,0.313720703125,-0.276611328125,-46.125,-116.1875,-11.9375,36.63671875
1508,-0.631103515625,0.313720703125,-0.276611328125,-46.125,-116.1875,-11.9375,36.63671875
1510,-0.628662109375,0.340087890625,-0.2353515625,-54.25,-114.25,-13.1875,36.63671875
1512,-0.628662109375,0.340087890625,-0.2353515625,-54.25,-114.25,-13.1875,36.63671875
1514,-0.62890625,0.349609375,-0.207763671875,-59.5625,-112.5,-13.8125,36.63671875
1516,-0.62890625,0.349609375,-0.207763671875,-59.5625,-112.5,-13.8125,36.63671875
1517,-0.62890625,0.349609375,-0.207763671875,-59.5625,-112.5,-13.8125,36.63671875
1519,-0.627685546875,0.34228515625,-0.189453125,-61.5,-111.125,-14.75,36.63671875
1521,-0.627685546875,0.34228515625,-0.189453125,-61.5,-111.125,-14.75,36.63671875
1523,-0.6396484375,0.327392578125,-0.184814453125,-59.8125,-110.1875,-15.75,36.63671875
1525,-0.6396484375,0.327392578125,-0.184814453125,-59.8125,-110.1875,-15.75,36.63671875
1528,-0.660400390625,0.2998046875,-0.190673828125,-54.3125,-109.875,-16.6875,36.63671875
1530,-0.660400390625,0.2998046875,-0.190673828125,-54.3125,-109.875,-16.6875,36.63671875
1531,-0.691162109375,0.27294921875,-0.197021484375,-46.25,-110.25,-17.5625,36.63671875
1533,-0.691162109375,0.27294921875,-0.197021484375,-46.25,-110.25,-17.5625,36.63671875
1535,-0.691162109375,0.27294921875,-0.197021484375,-46.25,-110.25,-17.5625,36.63671875
1537,-0.716552734375,0.243408203125,-0.199462890625,-36.375,-110.9375,-18.75,36.63671875
1539,-0.716552734375,0.243408203125,-0.199462890625,-36.375,-110.9375,-18.75,36.63671875
1541,-0.734619140625,0.222412109375,-0.201904296875,-27.125,-110.9375,-20.125,36.62890625
1543,-0.734619140625,0.222412109375,-0.201904296875,-27.125,-110.9375,-20.125,36.62890625
1545,-0.74755859375,0.201416015625,-0.198486328125,-19.125,-110.8125,-21.0,36.62890625
1547,-0.74755859375,0.201416015625,-0.198486328125,-19.125,-110.8125,-21.0,36.62890625
1549,-0.7607421875,0.18408203125,-0.203125,-12.9375,-110.375,-21.6875,36.62890625
1551,-0.7607421875,0.18408203125,-0.203125,-12.9375,-110.375,-21.6875,36.62890625
1553,-0.7607421875,0.171142578125,-0.20556640625,-9.25,-108.3125,-22.8125,36.62890625
1555,-0.7744140625,0.171142578125,-0.20556640625,-9.25,-108.3125,-22.8125,36.62890625
1557,-0.7744140625,0.171142578125,-0.20556640625,-9.25,-108.3125,-22.8125,36.62890625
1559,-0.78662109375,0.1630859375,-0.19970703125,-6.5,-106.0625,-24.625,36.62890625
1561,-0.78662109375,0.1630859375,-0.19970703125,-6.5,-106.0625,-24.625,36.62890625
1563,-0.797119140625,0.15869140625,-0.189453125,-5.5625,-103.5,-27.0,36.62890625
1565,-0.797119140625,0.15869140625,-0.189453125,-5.5625,-103.5,-27.0,36.62890625
1567,-0.80908203125,0.1435546875,-0.177978515625,-6.625,-101.0625,-28.75,36.62890625
1569,-0.80908203125,0.1435546875,-0.177978515625,-6.625,-101.0625,-28.75,36.62890625
1571,-0.8134765625,0.11865234375,-0.15966796875,-9.375,-99.125,-29.25,36.62890625
1573,-0.8134765625,0.11865234375,-0.15966796875,-9.375,-99.125,-29.25,36.62890625
1575,-0.8134765625,0.11865234375,-0.15966796875,-9.375,-99.125,-29.25,36.62890625
1577,-0.814697265625,0.106201171875,-0.151123046875,-13.0625,-97.5625,-29.8125,36.62890625
1579,-0.814697265625,0.106201171875,-0.151123046875,-13.0625,-97.5625,-29.8125,36.62890625
1581,-0.8193359375,0.10791015625,-0.15478515625,-17.1875,-96.25,-31.0,36.62890625
1583,-0.8193359375,0.10791015625,-0.15478515625,-17.1875,-96.25,-31.0,36.62890625
1585,-0.811767578125,0.111083984375,-0.166259765625,-21.0,-95.4375,-31.75,36.62890625
1586,-0.811767578125,0.111083984375,-0.166259765625,-21.0,-95.4375,-31.75,36.62890625
1588,-0.811767578125,0.111083984375,-0.166259765625,-21.0,-95.4375,-31.75,36.62890625
1590,-0.793701171875,0.115478515625,-0.171142578125,-23.25,-95.5625,-31.875,36.62890625
1593,-0.793701171875,0.115478515625,-0.171142578125,-23.25,-95.5625,-31.875,36.62890625
1595,-0.781982421875,0.122314453125,-0.170166015625,-23.75,-97.1875,-31.5,36.62890625
1597,-0.781982421875,0.122314453125,-0.170166015625,-23.75,-97.1875,-31.5,36.62890625
1599,-0.785400390625,0.130859375,-0.163818359375,-24.125,-98.9375,-31.6875,36.62890625
1601,-0.785400390625,0.130859375,-0.163818359375,-24.125,-98.9375,-31.6875,36.62890625
1603,-0.791748046875,0.1455078125,-0.14306640625,-23.8125,-100.875,-31.75,36.62890625
1604,-0.791748046875,0.1455078125,-0.14306640625,-23.8125,-100.875,-31.75,36.62890625
1606,-0.791748046875,0.162353515625,-0.10595703125,-23.25,-103.1875,-31.0,36.62890625
1608,-0.78662109375,0.162353515625,-0.10595703125,-23.25,-103.1875,-31.0,36.62890625
1610,-0.78662109375,0.162353515625,-0.10595703125,-23.25,-103.1875,-31.0,36.62890625
1612,-0.778076171875,0.174560546875,-0.067138671875,-22.8125,-104.5625,-29.0,36.62890625
1616,-0.763671875,0.18505859375,-0.033447265625,-22.625,-104.5625,-27.125,36.62890625
1618,-0.763671875,0.18505859375,-0.033447265625,-22.625,-104.5625,-27.125,36.62890625
1620,-0.763671875,0.18505859375,-0.00537109375,-22.8125,-102.9375,-25.875,36.62890625
1622,-0.757568359375,0.196533203125,-0.00537109375,-22.8125,-102.9375,-25.875,36.62890625
1623,-0.757568359375,0.196533203125,-0.00537109375,-22.8125,-102.9375,-25.875,36.62890625
1625,-0.758544921875,0.204833984375,0.0166015625,-23.0625,-100.25,-25.5625,36.62890625
1627,-0.758544921875,0.204833984375,0.0166015625,-23.0625,-100.25,-25.5625,36.62890625
1629,-0.755126953125,0.1943359375,0.033935546875,-23.0625,-97.4375,-24.875,36.62890625
1631,-0.755126953125,0.1943359375,0.033935546875,-23.0625,-97.4375,-24.875,36.62890625
1633,-0.755126953125,0.175048828125,0.047119140625,-22.0,-95.125,-23.625,36.62890625
1635,-0.7587890625,0.175048828125,0.047119140625,-22.0,-95.125,-23.625,36.62890625
1637,-0.777587890625,0.155517578125,0.0498046875,-20.75,-93.75,-22.5625,36.62890625
1639,-0.777587890625,0.155517578125,0.0498046875,-20.75,-93.75,-22.5625,36.62890625
1641,-0.777587890625,0.155517578125,0.0498046875,-20.75,-93.75,-22.5625,36.62890625
1643,-0.794921875,0.141357421875,0.045166015625,-19.8125,-92.75,-22.375,36.62890625
1645,-0.794921875,0.141357421875,0.045166015625,-19.8125,-92.75,-22.375,36.62890625
1647,-0.79833984375,0.13134765625,0.033935546875,-19.125,-92.1875,-22.125,36.62890625
1649,-0.79833984375,0.13134765625,0.033935546875,-19.125,-92.1875,-22.125,36.62890625
1651,-0.792724609375,0.117431640625,0.019287109375,-18.0,-92.125,-21.6875,36.62890625
1653,-0.792724609375,0.117431640625,0.019287109375,-18.0,-92.125,-21.6875,36.62890625
1655,-0.792724609375,0.117431640625,0.019287109375,-18.0,-92.125,-21.6875,36.62890625
1657,-0.792724609375,0.10205078125,-0.008056640625,-16.0625,-92.8125,-20.875,36.62890625
1659,-0.792724609375,0.10205078125,-0.008056640625,-16.0625,-92.8125,-20.875,36.62890625
1661,-0.809326171875,0.08984375,-0.038330078125,-14.4375,-94.25,-20.0625,36.62890625
1663,-0.809326171875,0.08984375,-0.038330078125,-14.4375,-94.25,-20.0625,36.62890625
1665,-0.826171875,0.083740234375,-0.05078125,-15.375,-96.0625,-19.1875,36.62890625
1667,-0.826171875,0.083740234375,-0.05078125,-15.375,-96.0625,-19.1875,36.62890625
1669,-0.817138671875,0.088623046875,-0.0478515625,-20.0625,-97.8125,-18.0,36.62890625
1671,-0.817138671875,0.088623046875,-0.0478515625,-20.0625,-97.8125,-18.0,36.62890625
1673,-0.817138671875,0.088623046875,-0.0478515625,-20.0625,-97.8125,-18.0,36.62890625
1675,-0.784912109375,0.1025390625,-0.040283203125,-28.875,-99.3125,-16.5,36.62890625
1677,-0.784912109375,0.1025390625,-0.040283203125,-28.875,-99.3125,-16.5,36.62890625
1678,-0.7509765625,0.12353515625,-0.03564453125,-41.125,-100.0625,-14.6875,36.62890625
1681,-0.7509765625,0.12353515625,-0.03564453125,-41.125,-100.0625,-14.6875,36.62890625
1683,-0.732666015625,0.15380859375,-0.031982421875,-55.75,-99.6875,-12.875,36.6171875
1685,-0.732666015625,0.15380859375,-0.031982421875,-55.75,-99.6875,-12.875,36.6171875
1687,-0.72607421875,0.189697265625,-0.0400390625,-70.5625,-98.25,-11.8125,36.6171875
1689,-0.72607421875,0.189697265625,-0.0400390625,-70.5625,-98.25,-11.8125,36.6171875
1691,-0.70947265625,0.22998046875,-0.051025390625,-83.75,-95.625,-12.5,36.6171875
1693,-0.70947265625,0.22998046875,-0.051025390625,-83.75,-95.625,-12.5,36.6171875
1695,-0.70947265625,0.22998046875,-0.051025390625,-83.75,-95.625,-12.5,36.6171875
1697,-0.6728515625,0.266845703125,-0.033935546875,-95.625,-92.4375,-14.625,36.6171875
1699,-0.6728515625,0.266845703125,-0.033935546875,-95.625,-92.4375,-14.625,36.6171875
1701,-0.62890625,0.296142578125,0.013916015625,-106.6875,-88.875,-17.375,36.6171875
1703,-0.62890625,0.296142578125,0.013916015625,-106.6875,-88.875,-17.375,36.6171875
1705,-0.604248046875,0.30078125,0.07861328125,-118.0,-83.1875,-19.1875,36.6171875
1707,-0.604248046875,0.30078125,0.07861328125,-118.0,-83.1875,-19.1875,36.6171875
1709,-0.6181640625,0.292724609375,0.147216796875,-129.5,-75.0625,-20.0625,36.6171875
1711,-0.6181640625,0.292724609375,0.147216796875,-129.5,-75.0625,-20.0625,36.6171875
1713,-0.6181640625,0.292724609375,0.220947265625,-139.9375,-65.5625,-21.75,36.6171875
1715,-0.648193359375,0.302490234375,0.220947265625,-139.9375,-65.5625,-21.75,36.6171875
1717,-0.648193359375,0.302490234375,0.220947265625,-139.9375,-65.5625,-21.75,36.6171875
1719,-0.71044921875,0.32568359375,0.2900390625,-148.375,-59.25,-24.4375,36.6171875
1721,-0.71044921875,0.32568359375,0.2900390625,-148.375,-59.25,-24.4375,36.6171875
1722,-0.77685546875,0.368408203125,0.360107421875,-164.625,-63.625,-28.1875,36.6171875
1725,-0.77685546875,0.368408203125,0.360107421875,-164.625,-63.625,-28.1875,36.6171875
1727,-0.69384765625,0.29443359375,0.328125,-165.0625,-64.625,-27.3125,36.6171875
1729,-0.69384765625,0.29443359375,0.328125,-165.0625,-64.625,-27.3125,36.6171875
1731,-0.76806640625,0.267578125,0.38916015625,-156.625,-59.8125,-24.375,36.6171875
1733,-0.76806640625,0.267578125,0.38916015625,-156.625,-59.8125,-24.375,36.6171875
1735,-0.76806640625,0.267578125,0.38916015625,-156.625,-59.8125,-24.375,36.6171875
1737,-0.8525390625,0.242919921875,0.474365234375,-151.9375,-59.9375,-21.125,36.6171875
1739,-0.8525390625,0.242919921875,0.474365234375,-151.9375,-59.9375,-21.125,36.6171875
1741,-0.866455078125,0.173583984375,0.479736328125,-148.4375,-58.9375,-20.6875,36.6171875
1742,-0.866455078125,0.173583984375,0.479736328125,-148.4375,-58.9375,-20.6875,36.6171875
1744,-0.869384765625,0.12255859375,0.462646484375,-146.1875,-53.75,-20.125,36.6171875
1747,-0.869384765625,0.12255859375,0.462646484375,-146.1875,-53.75,-20.125,36.6171875
1749,-0.86865234375,0.086669921875,0.451904296875,-148.75,-49.625,-21.1875,36.6171875
1751,-0.86865234375,0.086669921875,0.451904296875,-148.75,-49.625,-21.1875,36.6171875
1752,-0.86865234375,0.086669921875,0.451904296875,-155.3125,-47.9375,-26.625,36.6171875
1754,-0.869384765625,0.04638671875,0.4365234375,-155.3125,-47.9375,-26.625,36.6171875
1756,-0.869384765625,0.04638671875,0.4365234375,-155.3125,-47.9375,-26.625,36.6171875
1758,-0.90966796875,0.029296875,0.402587890625,-164.4375,-44.5,-33.1875,36.6171875
1760,-0.90966796875,0.029296875,0.402587890625,-164.4375,-44.5,-33.1875,36.6171875
1762,-0.90771484375,0.023681640625,0.345703125,-175.25,-38.0625,-39.6875,36.6171875
1764,-0.90771484375,0.023681640625,0.345703125,-175.25,-38.0625,-39.6875,36.6171875
1766,-0.9140625,0.027587890625,0.324462890625,-182.9375,-31.5,-46.0625,36.6171875
1768,-0.9140625,0.027587890625,0.324462890625,-182.9375,-31.5,-46.0625,36.6171875
1770,-0.9140625,0.027587890625,0.31689453125,-183.375,-26.1875,-51.4375,36.6171875
1772,-0.941650390625,0.03271484375,0.31689453125,-183.375,-26.1875,-51.4375,36.6171875
1774,-0.941650390625,0.03271484375,0.31689453125,-183.375,-26.1875,-51.4375,36.6171875
1776,-0.959716796875,0.02587890625,0.31884765625,-179.0,-21.5625,-55.625,36.6171875
1778,-0.959716796875,0.02587890625,0.31884765625,-179.0,-21.5625,-55.625,36.6171875
1780,-0.981201171875,0.0068359375,0.3369140625,-173.125,-17.9375,-57.5625,36.6171875
1782,-0.981201171875,0.0068359375,0.3369140625,-173.125,-17.9375,-57.5625,36.6171875
1784,-1.043701171875,-0.021728515625,0.34521484375,-168.3125,-15.5,-56.5625,36.6171875
1786,-1.012939453125,-0.021728515625,0.34521484375,-168.3125,-15.5,-56.5625,36.6171875
1787,-1.012939453125,-0.021728515625,0.34521484375,-168.3125,-15.5,-56.5625,36.6171875
1790,-1.06298828125,-0.052001953125,0.343017578125,-165.125,-13.625,-54.375,36.6171875
1792,-1.06298828125,-0.052001953125,0.343017578125,-165.125,-13.625,-54.375,36.6171875
1794,-1.122314453125,-0.075927734375,0.322265625,-160.0,-13.3125,-52.3125,36.6171875
1796,-1.122314453125,-0.075927734375,0.322265625,-160.0,-13.3125,-52.3125,36.6171875
1798,-1.150634765625,-0.104248046875,0.3154296875,-151.5625,-17.875,-50.9375,36.6171875
1800,-1.150634765625,-0.104248046875,0.3154296875,-151.5625,-17.875,-50.9375,36.6171875
1802,-1.168701171875,-0.152587890625,0.3232421875,-136.75,-24.4375,-49.6875,36.6171875
1803,-1.168701171875,-0.152587890625,0.3232421875,-136.75,-24.4375,-49.6875,36.6171875
1806,-1.168701171875,-0.152587890625,0.3232421875,-136.75,-30.6875,-46.6875,36.6171875
1807,-1.2119140625,-0.206787109375,0.3505859375,-118.75,-30.6875,-46.6875,36.6171875
1809,-1.2119140625,-0.206787109375,0.3505859375,-118.75,-30.6875,-46.6875,36.6171875
1812,-1.253173828125,-0.252197265625,0.3837890625,-99.875,-35.3125,-41.25,36.6171875
1814,-1.253173828125,-0.252197265625,0.3837890625,-99.875,-35.3125,-41.25,36.6171875
1816,-1.296630859375,-0.2802734375,0.42333984375,-83.0625,-39.0625,-35.0,36.6171875
1818,-1.296630859375,-0.2802734375,0.42333984375,-83.0625,-39.0625,-35.0,36.6171875
1820,-1.31640625,-0.291015625,0.44482421875,-68.5625,-43.0625,-29.375,36.6171875
1822,-1.31640625,-0.291015625,0.44482421875,-68.5625,-43.0625,-29.375,36.6171875
1823,-1.31640625,-0.263427734375,0.44677734375,-55.1875,-46.0625,-24.1875,36.6171875
1825,-1.315673828125,-0.263427734375,0.44677734375,-55.1875,-46.0625,-24.1875,36.61328125
1827,-1.315673828125,-0.263427734375,0.44677734375,-55.1875,-46.0625,-24.1875,36.61328125
1829,-1.281494140625,-0.23486328125,0.430419921875,-44.0,-46.75,-19.1875,36.61328125
1831,-1.281494140625,-0.23486328125,0.430419921875,-44.0,-46.75,-19.1875,36.61328125
1834,-1.24755859375,-0.21435546875,0.390869140625,-35.1875,-43.6875,-14.8125,36.61328125
1836,-1.24755859375,-0.21435546875,0.390869140625,-35.1875,-43.6875,-14.8125,36.61328125
1838,-1.231689453125,-0.1796875,0.352294921875,-32.0625,-38.4375,-11.625,36.61328125
1839,-1.231689453125,-0.1796875,0.352294921875,-32.0625,-38.4375,-11.625,36.61328125
1841,-1.191650390625,-0.142822265625,0.299072265625,-32.5,-32.9375,-9.625,36.61328125
1843,-1.191650390625,-0.142822265625,0.299072265625,-32.5,-32.9375,-9.625,36.61328125
1845,-1.191650390625,-0.142822265625,0.299072265625,-32.5,-32.9375,-9.625,36.61328125
1847,-1.15185546875,-0.109375,0.231201171875,-33.125,-26.8125,-8.6875,36.61328125
1849,-1.15185546875,-0.109375,0.231201171875,-33.125,-26.8125,-8.6875,36.61328125
1851,-1.13916015625,-0.0791015625,0.167236328125,-34.5,-20.5625,-9.25,36.61328125
1853,-1.13916015625,-0.0791015625,0.167236328125,-34.5,-20.5625,-9.25,36.61328125
1855,-1.12353515625,-0.0546875,0.096923828125,-35.6875,-14.5625,-10.625,36.61328125
1857,-1.12353515625,-0.0546875,0.096923828125,-35.6875,-14.5625,-10.625,36.61328125
1859,-1.10205078125,-0.033935546875,0.02880859375,-36.3125,-9.625,-12.4375,36.61328125
1861,-1.10205078125,-0.033935546875,0.02880859375,-36.3125,-9.625,-12.4375,36.61328125
1863,-1.10205078125,-0.033935546875,0.02880859375,-36.3125,-9.625,-12.4375,36.61328125
1865,-1.070068359375,-0.013916015625,-0.0263671875,-36.375,-5.5625,-15.1875,36.61328125
1867,-1.070068359375,-0.013916015625,-0.0263671875,-36.375,-5.5625,-15.1875,36.61328125
1869,-1.03759765625,0.005859375,-0.07373046875,-34.375,-1.6875,-19.125,36.61328125
1871,-1.03759765625,0.005859375,-0.07373046875,-34.375,-1.6875,-19.125,36.61328125
1873,-1.0185546875,0.026611328125,-0.124755859375,-28.6875,1.8125,-22.4375,36.61328125
1875,-1.0185546875,0.026611328125,-0.124755859375,-28.6875,1.8125,-22.4375,36.61328125
1878,-1.0146484375,0.038818359375,-0.176513671875,-20.0625,4.0625,-24.4375,36.61328125
1879,-1.0146484375,0.038818359375,-0.176513671875,-20.0625,4.0625,-24.4375,36.61328125
1882,-1.008056640625,0.03173828125,-0.184814453125,-11.6875,5.0625,-24.625,36.61328125
1883,-1.008056640625,0.03173828125,-0.184814453125,-11.6875,5.0625,-24.625,36.61328125
1885,-1.008056640625,0.03173828125,-0.184814453125,-11.6875,5.0625,-24.625,36.61328125
1887,-1.021240234375,0.027587890625,-0.13671875,-4.6875,3.4375,-22.75,36.61328125
1889,-1.021240234375,0.027587890625,-0.13671875,-4.6875,3.4375,-22.75,36.61328125
1891,-1.04541015625,0.04638671875,-0.08154296875,-0.1875,-0.0625,-21.25,36.61328125
1893,-1.04541015625,0.04638671875,-0.08154296875,-0.1875,-0.0625,-21.25,36.61328125
1895,-1.04931640625,0.071044921875,-0.05126953125,2.875,-4.6875,-20.625,36.61328125
1897,-1.04931640625,0.071044921875,-0.05126953125,2.875,-4.6875,-20.625,36.61328125
1899,-1.044189453125,0.08056640625,-0.02587890625,6.4375,-10.125,-20.625,36.61328125
1901,-1.044189453125,0.08056640625,-0.02587890625,6.4375,-10.125,-20.625,36.61328125
1903,-1.044189453125,0.08056640625,0.03662109375,11.6875,-15.4375,-18.75,36.61328125
1905,-1.052734375,0.08154296875,0.008544921875,11.6875,-15.4375,-18.75,36.61328125
1907,-1.052734375,0.08154296875,0.008544921875,11.6875,-15.4375,-18.75,36.61328125
1909,-1.070068359375,0.08837890625,0.047607421875,17.0,-20.6875,-14.5625,36.61328125
1911,-1.070068359375,0.08837890625,0.047607421875,17.0,-20.6875,-14.5625,36.61328125
1913,-1.076171875,0.09375,0.085693359375,21.3125,-26.375,-9.0625,36.61328125
1915,-1.076171875,0.09375,0.085693359375,21.3125,-26.375,-9.0625,36.61328125
1917,-1.0537109375,0.090576171875,0.091552734375,24.0625,-30.8125,-3.9375,36.61328125
1919,-1.0537109375,0.090576171875,0.091552734375,24.0625,-30.8125,-3.9375,36.61328125
1921,-1.026123046875,0.086181640625,0.069091796875,27.125,-32.9375,1.375,36.61328125
1923,-1.026123046875,0.086181640625,0.069091796875,27.125,-32.9375,1.375,36.61328125
1925,-1.026123046875,0.086181640625,0.069091796875,27.125,-32.9375,1.375,36.61328125
1927,-1.00390625,0.08154296875,0.03369140625,31.1875,-32.0,6.9375,36.61328125
1929,-1.00390625,0.08154296875,0.03369140625,31.1875,-32.0,6.9375,36.61328125
1931,-0.99267578125,0.074951171875,-0.004150390625,36.0,-30.0,11.75,36.61328125
1933,-0.99267578125,0.074951171875,-0.004150390625,36.0,-30.0,11.75,36.61328125
1934,-1.0087890625,0.06201171875,-0.04833984375,40.4375,-28.375,15.0,36.61328125
1936,-1.0087890625,0.06201171875,-0.04833984375,40.4375,-28.375,15.0,36.61328125
1938,-1.0087890625,0.06201171875,-0.04833984375,40.4375,-28.375,15.0,36.61328125
1940,-1.033935546875,0.04296875,-0.09423828125,44.0,-27.75,17.0625,36.61328125
1943,-1.033935546875,0.04296875,-0.09423828125,44.0,-27.75,17.0625,36.61328125
1945,-1.039794921875,0.023681640625,-0.134765625,47.875,-27.5625,17.75,36.61328125
1946,-1.039794921875,0.023681640625,-0.134765625,47.875,-27.5625,17.75,36.61328125
1948,-1.0419921875,0.0048828125,-0.160888671875,52.625,-27.9375,18.0625,36.61328125
1950,-1.0419921875,0.0048828125,-0.160888671875,52.625,-27.9375,18.0625,36.61328125
1952,-1.0576171875,-0.011962890625,-0.16650390625,57.9375,-27.9375,18.25,36.61328125
1954,-1.0576171875,-0.011962890625,-0.16650390625,57.9375,-27.9375,18.25,36.61328125
1956,-1.0576171875,-0.011962890625,-0.16650390625,57.9375,-27.9375,18.25,36.61328125
1958,-1.07421875,-0.022216796875,-0.156982421875,62.5625,-27.875,18.625,36.61328125
1960,-1.07421875,-0.022216796875,-0.156982421875,62.5625,-27.875,18.625,36.61328125
1962,-1.07958984375,-0.02880859375,-0.145751953125,66.75,-28.0,18.8125,36.61328125
1964,-1.07958984375,-0.02880859375,-0.145751953125,66.75,-28.0,18.8125,36.61328125
1966,-1.068603515625,-0.0205078125,-0.146240234375,71.0,-27.0625,18.875,36.609375
1968,-1.068603515625,-0.0205078125,-0.146240234375,71.0,-27.0625,18.875,36.609375
1970,-1.052734375,-0.01513671875,-0.15234375,76.6875,-24.875,18.5625,36.609375
1972,-1.052734375,-0.01513671875,-0.15234375,76.6875,-24.875,18.5625,36.609375
1974,-1.052734375,-0.01513671875,-0.15234375,76.6875,-24.875,18.5625,36.609375
1975,-1.042724609375,-0.007568359375,-0.150390625,83.75,-22.3125,17.9375,36.609375
1977,-1.042724609375,-0.007568359375,-0.150390625,83.75,-22.3125,17.9375,36.609375
1979,-1.03857421875,0.00634765625,-0.1318359375,91.125,-19.875,17.0625,36.609375
1981,-1.03857421875,0.00634765625,-0.1318359375,91.125,-19.875,17.0625,36.609375
1983,-1.030029296875,0.015869140625,-0.10400390625,98.6875,-18.9375,16.0,36.609375
1986,-1.030029296875,0.015869140625,-0.10400390625,98.6875,-18.9375,16.0,36.609375
1987,-1.030029296875,0.015869140625,-0.0859375,105.125,-18.0625,15.1875,36.609375
1989,-1.02783203125,0.019775390625,-0.0859375,105.125,-18.0625,15.1875,36.609375
1991,-1.02783203125,0.019775390625,-0.0859375,105.125,-18.0625,15.1875,36.609375
1993,-1.019287109375,0.019287109375,-0.056640625,112.125,-17.0,14.6875,36.609375
1995,-1.019287109375,0.019287109375,-0.056640625,112.125,-17.0,14.6875,36.609375
1997,-1.01318359375,0.019775390625,-0.0234375,118.1875,-15.625,14.375,36.609375
1999,-1.01318359375,0.019775390625,-0.0234375,118.1875,-15.625,14.375,36.609375
2001,-1.013671875,0.0185546875,0.021484375,123.125,-13.375,14.25,36.609375
2003,-1.013671875,0.0185546875,0.021484375,123.125,-13.375,14.25,36.609375
2005,-1.013671875,0.0185546875,0.021484375,123.125,-13.375,14.3125,36.609375
2007,-1.007080078125,0.031005859375,0.052978515625,126.5625,-10.375,14.3125,36.609375
2009,-1.007080078125,0.031005859375,0.052978515625,126.5625,-10.375,14.3125,36.609375
2011,-1.005859375,0.045166015625,0.069091796875,127.875,-8.375,13.75,36.609375
2013,-1.005859375,0.045166015625,0.069091796875,127.875,-8.375,13.75,36.609375
2015,-1.00341796875,0.0576171875,0.068115234375,128.5625,-6.5625,12.625,36.609375
2017,-1.00341796875,0.0576171875,0.068115234375,128.5625,-6.5625,12.625,36.609375
2019,-0.9951171875,0.06591796875,0.06298828125,130.125,-5.1875,11.4375,36.609375
2021,-0.9951171875,0.06591796875,0.06298828125,130.125,-5.1875,11.4375,36.609375
2023,-0.9951171875,0.06591796875,0.06298828125,130.125,-5.1875,10.6875,36.609375
2025,-0.99267578125,0.069091796875,0.067626953125,131.8125,-3.6875,10.6875,36.609375
2026,-0.99267578125,0.069091796875,0.067626953125,131.8125,-3.6875,10.6875,36.609375
2029,-1.01708984375,0.099365234375,0.091064453125,135.125,-0.875,10.6875,36.609375
2031,-1.01708984375,0.099365234375,0.091064453125,135.125,-0.875,10.6875,36.609375
2033,-1.033447265625,0.11572265625,0.138427734375,144.1875,4.0,12.4375,36.609375
2035,-1.033447265625,0.11572265625,0.138427734375,144.1875,4.0,12.4375,36.609375
2037,-0.9951171875,0.07275390625,0.10693359375,150.375,8.3125,13.875,36.609375
2039,-0.9951171875,0.07275390625,0.10693359375,150.375,8.3125,13.875,36.609375
2041,-0.9951171875,0.06689453125,0.0673828125,152.3125,10.8125,15.3125,36.609375
2042,-0.994873046875,0.06689453125,0.0673828125,152.3125,10.8125,15.3125,36.609375
2044,-0.994873046875,0.06689453125,0.0673828125,152.3125,10.8125,15.3125,36.609375
2046,-0.9912109375,0.06005859375,0.052734375,155.9375,13.5625,16.25,36.609375
2048,-0.9912109375,0.06005859375,0.052734375,155.9375,13.5625,16.25,36.609375
2051,-0.99365234375,0.046630859375,0.038330078125,159.1875,16.6875,16.0625,36.609375
2053,-0.99365234375,0.046630859375,0.038330078125,159.1875,16.6875,16.0625,36.609375
2055,-0.995849609375,0.041259765625,0.03271484375,159.5625,18.5625,15.0,36.609375
2056,-0.995849609375,0.041259765625,0.03271484375,159.5625,18.5625,15.0,36.609375
2058,-0.985595703125,0.045166015625,0.02978515625,157.0,19.375,12.1875,36.609375
2060,-0.985595703125,0.045166015625,0.02978515625,157.0,19.375,12.1875,36.609375
2062,-0.985595703125,0.045166015625,0.02978515625,157.0,19.375,12.1875,36.609375
2064,-0.999267578125,0.074951171875,0.02490234375,151.625,19.8125,9.25,36.609375
2066,-0.999267578125,0.074951171875,0.02490234375,151.625,19.8125,9.25,36.609375
2068,-1.010009765625,0.1005859375,0.01904296875,147.0625,19.6875,7.9375,36.609375
2070,-1.010009765625,0.1005859375,0.01904296875,147.0625,19.6875,7.9375,36.609375
2073,-0.999267578125,0.1240234375,0.012939453125,143.0,18.9375,7.5625,36.609375
2075,-0.999267578125,0.1240234375,0.012939453125,143.0,18.9375,7.5625,36.609375
2077,-0.9765625,0.141357421875,0.026123046875,137.6875,17.0,7.75,36.609375
2079,-0.9765625,0.141357421875,0.026123046875,137.6875,17.0,7.75,36.609375
2081,-0.957763671875,0.154052734375,0.04443359375,131.25,14.5625,7.5,36.609375
2083,-0.957763671875,0.154052734375,0.04443359375,131.25,14.5625,7.5,36.609375
2085,-0.957763671875,0.154052734375,0.04443359375,115.25,12.8125,7.25,36.609375
2087,-0.948974609375,0.171875,0.05224609375,123.3125,12.8125,7.25,36.609375
2089,-0.948974609375,0.171875,0.05224609375,123.3125,12.8125,7.25,36.609375
2090,-0.95166015625,0.191650390625,0.055908203125,115.25,11.6875,7.125,36.609375
2092,-0.95166015625,0.191650390625,0.055908203125,115.25,11.6875,7.125,36.609375
2094,-0.96044921875,0.21044921875,0.057861328125,108.25,10.1875,7.375,36.609375
2097,-0.96044921875,0.21044921875,0.057861328125,108.25,10.1875,7.375,36.609375
2099,-0.966796875,0.2109375,0.064208984375,100.9375,8.8125,8.25,36.609375
2101,-0.966796875,0.2109375,0.064208984375,100.9375,8.8125,8.25,36.609375
2103,-0.966796875,0.210693359375,0.0751953125,93.8125,7.6875,9.375,36.609375
2105,-0.974365234375,0.210693359375,0.0751953125,93.8125,7.6875,9.375,36.609375
2106,-0.974365234375,0.210693359375,0.0751953125,93.8125,7.6875,9.375,36.609375
2108,-0.98291015625,0.204345703125,0.10009765625,87.1875,6.75,11.0,36.640625
2110,-0.98291015625,0.204345703125,0.10009765625,87.1875,6.75,11.0,36.640625
2112,-0.99365234375,0.19677734375,0.125,81.3125,6.625,12.4375,36.640625
2114,-0.99365234375,0.19677734375,0.125,81.3125,6.625,12.4375,36.640625
2116,-1.0078125,0.180908203125,0.135009765625,76.5,6.5,14.0,36.640625
2118,-1.0078125,0.180908203125,0.135009765625,76.5,6.5,14.0,36.640625
2120,-1.0078125,0.163818359375,0.1279296875,72.5,6.4375,15.625,36.640625
2122,-1.03271484375,0.163818359375,0.1279296875,72.5,6.4375,15.625,36.640625
2124,-1.03271484375,0.163818359375,0.1279296875,72.5,6.4375,15.625,36.640625
2126,-1.052490234375,0.14111328125,0.11181640625,68.6875,6.1875,17.1875,36.640625
2128,-1.052490234375,0.14111328125,0.11181640625,68.6875,6.1875,17.1875,36.640625
2130,-1.059814453125,0.131103515625,0.089599609375,64.9375,5.1875,18.375,36.640625
2132,-1.059814453125,0.131103515625,0.089599609375,64.9375,5.1875,18.375,36.640625
2134,-1.0517578125,0.130859375,0.06103515625,62.5,3.375,18.875,36.640625
2136,-1.0517578125,0.130859375,0.06103515625,62.5,3.375,18.875,36.640625
2138,-1.0517578125,0.130859375,0.06103515625,62.5,3.375,18.875,36.640625
2139,-1.03955078125,0.124755859375,0.0283203125,61.5,1.6875,19.625,36.640625
2141,-1.03955078125,0.124755859375,0.0283203125,61.5,1.6875,19.625,36.640625
2144,-1.034423828125,0.125244140625,-0.002197265625,62.0,0.5625,20.25,36.640625
2146,-1.034423828125,0.125244140625,-0.002197265625,62.0,0.5625,20.25,36.640625
2148,-1.024169921875,0.126953125,-0.0205078125,62.625,0.1875,20.3125,36.640625
2150,-1.024169921875,0.126953125,-0.0205078125,62.625,0.1875,20.3125,36.640625
2152,-1.01416015625,0.1337890625,-0.0234375,62.0,0.125,20.0,36.640625
2153,-1.01416015625,0.1337890625,-0.0234375,62.0,0.125,20.0,36.640625
2155,-1.01416015625,0.1337890625,-0.0234375,62.0,0.125,20.0,36.640625
2157,-1.00927734375,0.1474609375,-0.01806640625,60.8125,0.0625,19.625,36.640625
2159,-1.00927734375,0.1474609375,-0.01806640625,60.8125,0.0625,19.625,36.640625
2161,-1.005615234375,0.162841796875,-0.01611328125,58.3125,0.8125,19.3125,36.640625
2163,-1.005615234375,0.162841796875,-0.01611328125,58.3125,0.8125,19.3125,36.640625
2165,-0.994140625,0.17333984375,-0.017578125,55.0625,1.375,18.875,36.640625
2167,-0.994140625,0.17333984375,-0.017578125,55.0625,1.375,18.875,36.640625
2169,-0.979736328125,0.17626953125,-0.022705078125,52.0625,1.75,18.625,36.640625
2171,-0.979736328125,0.17626953125,-0.022705078125,52.0625,1.75,18.625,36.640625
2173,-0.979736328125,0.17626953125,-0.022705078125,52.0625,1.75,18.625,36.640625
2175,-0.978515625,0.176025390625,-0.031982421875,49.3125,2.5,18.5,36.640625
2177,-0.978515625,0.176025390625,-0.031982421875,49.3125,2.5,18.5,36.640625
2179,-0.992431640625,0.1796875,-0.03857421875,46.625,3.125,18.6875,36.640625
2181,-0.992431640625,0.1796875,-0.03857421875,46.625,3.125,18.6875,36.640625
2183,-1.00048828125,0.180908203125,-0.045654296875,44.4375,2.875,18.625,36.640625
2185,-1.00048828125,0.180908203125,-0.045654296875,44.4375,2.875,18.625,36.640625
2186,-1.00048828125,0.180908203125,-0.045654296875,44.4375,2.875,18.625,36.640625
2188,-1.001220703125,0.1728515625,-0.055419921875,42.4375,2.0,18.5,36.640625
2191,-1.001220703125,0.1728515625,-0.055419921875,42.4375,2.0,18.5,36.640625
2193,-0.998046875,0.169677734375,-0.06640625,41.125,1.1875,18.3125,36.640625
2195,-0.998046875,0.169677734375,-0.06640625,41.125,1.1875,18.3125,36.640625
2197,-0.9912109375,0.17041015625,-0.076416015625,40.8125,0.9375,17.6875,36.640625
2198,-0.9912109375,0.17041015625,-0.076416015625,40.8125,0.9375,17.6875,36.640625
2201,-0.98388671875,0.170654296875,-0.091552734375,41.0625,0.9375,16.5,36.640625
2202,-0.98388671875,0.170654296875,-0.091552734375,41.0625,0.9375,16.5,36.640625
2204,-0.98388671875,0.164306640625,-0.107421875,41.875,0.8125,15.3125,36.640625
2206,-0.974365234375,0.164306640625,-0.107421875,41.875,0.8125,15.3125,36.640625
2208,-0.974365234375,0.164306640625,-0.107421875,41.875,0.8125,15.3125,36.640625
2210,-0.970703125,0.15771484375,-0.11669921875,43.625,0.9375,14.375,36.640625
2213,-0.970703125,0.15771484375,-0.11669921875,43.625,0.9375,14.375,36.640625
2215,-0.97998046875,0.15625,-0.119873046875,45.6875,1.1875,13.375,36.640625
2217,-0.97998046875,0.15625,-0.119873046875,45.6875,1.1875,13.375,36.640625
2218,-0.99365234375,0.15869140625,-0.110107421875,47.4375,1.3125,11.8125,36.640625
2220,-0.99365234375,0.15869140625,-0.110107421875,47.4375,1.3125,11.8125,36.640625
2222,-0.994873046875,0.1669921875,-0.087158203125,48.3125,0.5625,9.9375,36.640625
2224,-0.994873046875,0.1669921875,-0.087158203125,48.3125,0.5625,9.9375,36.640625
2226,-0.994873046875,0.1669921875,-0.087158203125,48.3125,0.5625,9.9375,36.640625
2228,-0.989501953125,0.177001953125,-0.05810546875,47.9375,-0.875,8.25,36.640625
2230,-0.989501953125,0.177001953125,-0.05810546875,47.9375,-0.875,8.25,36.640625
2232,-0.986083984375,0.181396484375,-0.02490234375,45.8125,-1.8125,7.0625,36.640625
2234,-0.986083984375,0.181396484375,-0.02490234375,45.8125,-1.8125,7.0625,36.640625
2236,-0.98876953125,0.1796875,-0.000244140625,43.0,-1.6875,6.3125,36.640625
2238,-0.98876953125,0.1796875,-0.000244140625,43.0,-1.6875,6.3125,36.640625
2240,-1.00048828125,0.17626953125,0.01513671875,40.3125,-1.25,5.75,36.640625
2242,-1.00048828125,0.17626953125,0.01513671875,40.3125,-1.25,5.75,36.640625
2244,-1.00048828125,0.17626953125,0.01513671875,40.3125,-1.25,5.75,36.640625
2246,-1.009521484375,0.1806640625,0.02734375,38.0,-0.625,5.0625,36.640625
2248,-1.009521484375,0.1806640625,0.02734375,38.0,-0.625,5.0625,36.640625
2250,-1.01025390625,0.188232421875,0.033447265625,36.0,-0.0625,4.25,36.6171875
2251,-1.01025390625,0.188232421875,0.033447265625,36.0,-0.0625,4.25,36.6171875
2253,-1.001708984375,0.193115234375,0.035400390625,34.0,0.3125,3.5625,36.6171875
2255,-1.001708984375,0.193115234375,0.035400390625,34.0,0.3125,3.5625,36.6171875
2257,-1.001708984375,0.193115234375,0.035400390625,34.0,0.3125,3.5625,36.6171875
2260,-0.992919921875,0.196533203125,0.034912109375,31.9375,1.1875,3.1875,36.6171875
2262,-0.992919921875,0.196533203125,0.034912109375,31.9375,1.1875,3.1875,36.6171875
2263,-0.9912109375,0.197509765625,0.02587890625,29.8125,2.8125,3.0625,36.6171875
2265,-0.9912109375,0.197509765625,0.02587890625,29.8125,2.8125,3.0625,36.6171875
2267,-0.994140625,0.1962890625,0.012939453125,28.375,3.875,3.1875,36.6171875
2269,-0.994140625,0.1962890625,0.012939453125,28.375,3.875,3.1875,36.6171875
2271,-0.986328125,0.193359375,-0.007568359375,27.8125,4.125,3.0625,36.6171875
2274,-0.986328125,0.193359375,-0.007568359375,27.8125,4.125,3.0625,36.6171875
2276,-0.972900390625,0.18505859375,-0.03271484375,28.1875,3.6875,3.0625,36.6171875
2278,-0.972900390625,0.18505859375,-0.03271484375,28.1875,3.6875,3.0625,36.6171875
2279,-0.972900390625,0.18505859375,-0.03271484375,28.1875,3.6875,3.0625,36.6171875
2282,-0.967529296875,0.1787109375,-0.054931640625,28.875,3.25,3.3125,36.6171875
2284,-0.967529296875,0.1787109375,-0.054931640625,28.875,3.25,3.3125,36.6171875
2286,-0.966552734375,0.177978515625,-0.07080078125,28.8125,3.25,3.1875,36.6171875
2288,-0.966552734375,0.177978515625,-0.07080078125,28.8125,3.25,3.1875,36.6171875
2290,-0.96826171875,0.18505859375,-0.080078125,27.5625,3.5,2.5625,36.6171875
2291,-0.96826171875,0.18505859375,-0.080078125,27.5625,3.5,2.5625,36.6171875
2293,-0.962890625,0.1962890625,-0.0859375,25.25,3.5625,1.8125,36.6171875
2295,-0.962890625,0.1962890625,-0.0859375,25.25,3.5625,1.8125,36.6171875
2297,-0.962890625,0.1962890625,-0.0859375,25.25,3.5625,1.8125,36.6171875
2299,-0.950439453125,0.2041015625,-0.0888671875,21.375,3.375,1.125,36.6171875
2301,-0.950439453125,0.2041015625,-0.0888671875,21.375,3.375,1.125,36.6171875
2303,-0.94287109375,0.208740234375,-0.088134765625,16.9375,3.3125,0.625,36.6171875
2305,-0.94287109375,0.208740234375,-0.088134765625,16.9375,3.3125,0.625,36.6171875
2307,-0.945556640625,0.214111328125,-0.08837890625,12.5,3.6875,0.25,36.6171875
2309,-0.945556640625,0.214111328125,-0.08837890625,12.5,3.6875,0.25,36.6171875
2311,-0.953857421875,0.218505859375,-0.082763671875,8.625,4.1875,-0.625,36.6171875
2313,-0.953857421875,0.218505859375,-0.082763671875,8.625,4.1875,-0.625,36.6171875
2315,-0.953857421875,0.218505859375,-0.082763671875,8.625,4.1875,-0.625,36.6171875
2317,-0.95849609375,0.223876953125,-0.07568359375,5.0,4.0625,-1.375,36.6171875
2319,-0.95849609375,0.223876953125,-0.07568359375,5.0,4.0625,-1.375,36.6171875
2321,-0.9599609375,0.22900390625,-0.0693359375,0.75,3.0625,-1.75,36.6171875
2323,-0.9599609375,0.22900390625,-0.0693359375,0.75,3.0625,-1.75,36.6171875
2324,-0.961181640625,0.223876953125,-0.0595703125,-4.25,1.8125,-1.8125,36.6171875
2327,-0.961181640625,0.223876953125,-0.0595703125,-4.25,1.8125,-1.8125,36.6171875
2329,-0.953369140625,0.218505859375,-0.0400390625,-8.125,1.125,-2.0,36.6171875
2331,-0.953369140625,0.218505859375,-0.0400390625,-8.125,1.125,-2.0,36.6171875
2333,-0.953369140625,0.218505859375,-0.0400390625,-8.125,1.125,-2.125,36.6171875
2335,-0.960205078125,0.2158203125,-0.033447265625,-11.0625,0.5,-2.125,36.6171875
2337,-0.960205078125,0.2158203125,-0.033447265625,-11.0625,0.5,-2.125,36.6171875
2338,-0.970947265625,0.215087890625,-0.02294921875,-13.5625,-0.0625,-1.8125,36.6171875
2340,-0.970947265625,0.215087890625,-0.02294921875,-13.5625,-0.0625,-1.8125,36.6171875
2342,-0.984619140625,0.22216796875,-0.0068359375,-15.1875,-0.4375,-1.3125,36.6171875
2344,-0.984619140625,0.22216796875,-0.0068359375,-15.1875,-0.4375,-1.3125,36.6171875
2346,-0.984619140625,0.233154296875,0.010986328125,-16.5,-0.3125,-1.25,36.6171875
2349,-0.994384765625,0.233154296875,0.010986328125,-16.5,-0.3125,-1.25,36.6171875
2350,-0.994384765625,0.233154296875,0.010986328125,-16.5,-0.3125,-1.25,36.6171875
2352,-0.99560546875,0.240478515625,0.0205078125,-17.1875,-0.25,-1.4375,36.6171875
2354,-0.99560546875,0.240478515625,0.0205078125,-17.1875,-0.25,-1.4375,36.6171875
2356,-0.99609375,0.24609375,0.028076171875,-17.25,-0.125,-1.5,36.6171875
2358,-0.99609375,0.24609375,0.028076171875,-17.25,-0.125,-1.5,36.6171875
2360,-0.9951171875,0.253173828125,0.037353515625,-17.6875,0.5,-1.4375,36.6171875
2362,-0.9951171875,0.253173828125,0.037353515625,-17.6875,0.5,-1.4375,36.6171875
2364,-0.9951171875,0.253173828125,0.037353515625,-17.6875,1.1875,-1.5,36.6171875
2366,-0.99072265625,0.258544921875,0.040283203125,-18.8125,1.1875,-1.5,36.6171875
2368,-0.99072265625,0.258544921875,0.040283203125,-18.8125,1.1875,-1.5,36.6171875
2370,-0.984130859375,0.258056640625,0.031494140625,-20.75,1.875,-1.25,36.6171875
2372,-0.984130859375,0.258056640625,0.031494140625,-20.75,1.875,-1.25,36.6171875
2374,-0.976806640625,0.249755859375,0.010009765625,-22.8125,2.0,-1.0,36.6171875
2376,-0.976806640625,0.249755859375,0.010009765625,-22.8125,2.0,-1.0,36.6171875
2377,-0.9716796875,0.237548828125,-0.018310546875,-25.0,1.9375,-1.0625,36.6171875
2379,-0.9716796875,0.237548828125,-0.018310546875,-25.0,1.9375,-1.0625,36.6171875
2381,-0.9716796875,0.237548828125,-0.018310546875,-25.0,1.9375,-1.0625,36.6171875
2383,-0.970703125,0.220458984375,-0.04248046875,-26.6875,1.375,-1.0,36.6171875
2385,-0.970703125,0.220458984375,-0.04248046875,-26.6875,1.375,-1.0,36.6171875
2387,-0.971923828125,0.208251953125,-0.059814453125,-28.3125,0.8125,-1.1875,36.6171875
2389,-0.971923828125,0.208251953125,-0.059814453125,-28.3125,0.8125,-1.1875,36.6171875
2391,-0.974609375,0.202392578125,-0.06494140625,-29.4375,0.3125,-1.5625,36.6328125
2393,-0.974609375,0.202392578125,-0.06494140625,-29.4375,0.3125,-1.5625,36.6328125
2395,-0.974609375,0.19970703125,-0.0634765625,-30.6875,-0.125,-2.0,36.6328125
2397,-0.974609375,0.19970703125,-0.0634765625,-30.6875,-0.125,-2.0,36.6328125
2399,-0.974609375,0.19970703125,-0.0634765625,-30.6875,-0.125,-2.0,36.6328125
2401,-0.972412109375,0.1953125,-0.05908203125,-31.9375,-0.5,-2.0,36.6328125
2403,-0.972412109375,0.1953125,-0.05908203125,-31.9375,-0.5,-2.0,36.6328125
2405,-0.9775390625,0.189697265625,-0.057373046875,-32.5,-0.625,-1.5625,36.6328125
2407,-0.9775390625,0.189697265625,-0.057373046875,-32.5,-0.625,-1.5625,36.6328125
2409,-0.981201171875,0.18310546875,-0.062255859375,-30.9375,-0.4375,-1.125,36.6328125
2411,-0.981201171875,0.18310546875,-0.062255859375,-30.9375,-0.4375,-1.125,36.6328125
2413,-0.984130859375,0.17529296875,-0.063720703125,-27.6875,-0.5,-0.875,36.6328125
2415,-0.984130859375,0.17529296875,-0.063720703125,-27.6875,-0.5,-0.875,36.6328125
2417,-0.984130859375,0.176025390625,-0.055908203125,-24.0,-0.9375,-0.8125,36.6328125
2419,-0.9951171875,0.176025390625,-0.055908203125,-24.0,-0.9375,-0.8125,36.6328125
2421,-0.9951171875,0.176025390625,-0.055908203125,-24.0,-0.9375,-0.8125,36.6328125
2423,-0.99560546875,0.17724609375,-0.044921875,-21.0625,-1.8125,-0.9375,36.6328125
2425,-0.99560546875,0.17724609375,-0.044921875,-21.0625,-1.8125,-0.9375,36.6328125
2427,-0.9931640625,0.177490234375,-0.033935546875,-19.4375,-2.625,-0.5625,36.6328125
2429,-0.9931640625,0.177490234375,-0.033935546875,-19.4375,-2.625,-0.5625,36.6328125
2431,-0.99072265625,0.174072265625,-0.0283203125,-18.9375,-2.4375,-0.25,36.6328125
2432,-0.99072265625,0.174072265625,-0.0283203125,-18.9375,-2.4375,-0.25,36.6328125
2434,-0.99072265625,0.174072265625,-0.0283203125,-18.9375,-2.4375,-0.25,36.6328125
2437,-0.984375,0.174560546875,-0.0283203125,-17.875,-1.875,-0.125,36.6328125
2439,-0.984375,0.174560546875,-0.0283203125,-17.875,-1.875,-0.125,36.6328125
2441,-0.979736328125,0.180419921875,-0.03076171875,-15.8125,-1.375,-0.25,36.6328125
2443,-0.979736328125,0.180419921875,-0.03076171875,-15.8125,-1.375,-0.25,36.6328125
2444,-0.978759765625,0.189697265625,-0.028076171875,-13.125,-1.25,-0.1875,36.6328125
2446,-0.978759765625,0.189697265625,-0.028076171875,-13.125,-1.25,-0.1875,36.6328125
2448,-0.978515625,0.201171875,-0.01318359375,-10.75,-1.0625,-0.25,36.6328125
2450,-0.978515625,0.201171875,-0.01318359375,-10.75,-1.0625,-0.25,36.6328125
2452,-0.978515625,0.201171875,-0.01318359375,-10.75,-1.0625,-0.25,36.6328125
2454,-0.973876953125,0.21533203125,0.006103515625,-8.5,-0.5625,-0.8125,36.6328125
2456,-0.973876953125,0.21533203125,0.006103515625,-8.5,-0.5625,-0.8125,36.6328125
2458,-0.96826171875,0.227294921875,0.020751953125,-6.75,-0.3125,-1.0625,36.6328125
2460,-0.96826171875,0.227294921875,0.020751953125,-6.75,-0.3125,-1.0625,36.6328125
2462,-0.967041015625,0.23583984375,0.025634765625,-5.5,0.0,-1.4375,36.6328125
2464,-0.967041015625,0.23583984375,0.025634765625,-5.5,0.0,-1.4375,36.6328125
2466,-0.965576171875,0.23779296875,0.023681640625,-4.375,0.0625,-1.75,36.6328125
2468,-0.965576171875,0.23779296875,0.023681640625,-4.375,0.0625,-1.75,36.6328125
2470,-0.965576171875,0.23779296875,0.023681640625,-4.375,0.0625,-1.75,36.6328125
2472,-0.962890625,0.23828125,0.0185546875,-3.375,0.125,-1.9375,36.6328125
2474,-0.962890625,0.23828125,0.0185546875,-3.375,0.125,-1.9375,36.6328125
2476,-0.96826171875,0.236083984375,0.015380859375,-3.125,0.25,-2.625,36.6328125
2478,-0.96826171875,0.236083984375,0.015380859375,-3.125,0.25,-2.625,36.6328125
2480,-0.977294921875,0.230224609375,0.014404296875,-4.0,0.625,-3.625,36.6328125
2482,-0.977294921875,0.230224609375,0.014404296875,-4.0,0.625,-3.625,36.6328125
2484,-0.982177734375,0.22412109375,0.0126953125,-5.8125,1.0,-4.9375,36.6328125
2486,-0.982177734375,0.22412109375,0.0126953125,-5.8125,1.0,-4.9375,36.6328125
2488,-0.982177734375,0.22412109375,0.0126953125,-8.1875,1.1875,-5.75,36.6328125
2490,-0.98388671875,0.221435546875,0.009521484375,-8.1875,1.1875,-5.75,36.6328125
2492,-0.98388671875,0.221435546875,0.009521484375,-8.1875,1.1875,-5.75,36.6328125
2494,-0.98095703125,0.21728515625,0.002197265625,-10.75,1.1875,-6.5,36.6328125
2496,-0.98095703125,0.21728515625,0.002197265625,-10.75,1.1875,-6.5,36.6328125
2497,-0.977783203125,0.207275390625,-0.00439453125,-13.875,1.6875,-7.25,36.6328125
2499,-0.977783203125,0.207275390625,-0.00439453125,-13.875,1.6875,-7.25,36.6328125
2501,-0.977294921875,0.199462890625,-0.014404296875,-16.875,2.3125,-7.5625,36.6328125
2504,-0.977294921875,0.199462890625,-0.014404296875,-16.875,2.3125,-7.5625,36.6328125
2505,-0.977294921875,0.199462890625,-0.014404296875,-16.875,2.3125,-7.75,36.6328125
2507,-0.97900390625,0.196533203125,-0.03125,-18.8125,2.6875,-7.75,36.6328125
2509,-0.97900390625,0.196533203125,-0.03125,-18.8125,2.6875,-7.75,36.6328125
2511,-0.982666015625,0.194580078125,-0.0478515625,-19.8125,2.5625,-8.1875,36.6328125
2513,-0.982666015625,0.194580078125,-0.0478515625,-19.8125,2.5625,-8.1875,36.6328125
2515,-0.980712890625,0.191162109375,-0.0546875,-19.6875,1.875,-8.5625,36.6328125
2517,-0.980712890625,0.191162109375,-0.0546875,-19.6875,1.875,-8.5625,36.6328125
2519,-0.98193359375,0.184326171875,-0.052490234375,-19.1875,1.1875,-9.125,36.6328125
2521,-0.98193359375,0.184326171875,-0.052490234375,-19.1875,1.1875,-9.125,36.6328125
2523,-0.98193359375,0.184326171875,-0.052490234375,-19.1875,1.1875,-9.125,36.6328125
2525,-0.984130859375,0.1787109375,-0.0400390625,-18.8125,0.8125,-9.375,36.6328125
2527,-0.984130859375,0.1787109375,-0.0400390625,-18.8125,0.8125,-9.375,36.6328125
2529,-0.984375,0.177001953125,-0.020263671875,-18.6875,0.875,-9.25,36.6328125
2531,-0.984375,0.177001953125,-0.020263671875,-18.6875,0.875,-9.25,36.6328125
2533,-0.98828125,0.18359375,-0.00537109375,-18.6875,1.25,-8.9375,36.61328125
2535,-0.98828125,0.18359375,-0.00537109375,-18.6875,1.25,-8.9375,36.61328125
2537,-0.99169921875,0.19140625,0.005859375,-18.4375,1.4375,-8.625,36.61328125
2539,-0.99169921875,0.19140625,0.005859375,-18.4375,1.4375,-8.625,36.61328125
2541,-0.99169921875,0.19140625,0.005859375,-18.4375,1.4375,-8.0,36.61328125
2543,-0.994384765625,0.19970703125,0.01806640625,-18.25,1.0625,-8.0,36.61328125
2545,-0.994384765625,0.19970703125,0.01806640625,-18.25,1.0625,-8.0,36.61328125
2547,-0.994873046875,0.2041015625,0.03369140625,-18.0625,0.75,-7.0625,36.61328125
2549,-0.994873046875,0.2041015625,0.03369140625,-18.0625,0.75,-7.0625,36.61328125
2551,-0.990966796875,0.20654296875,0.051513671875,-18.5,0.75,-6.1875,36.61328125
2553,-0.990966796875,0.20654296875,0.051513671875,-18.5,0.75,-6.1875,36.61328125
2555,-0.991943359375,0.20458984375,0.064208984375,-19.875,0.6875,-5.8125,36.61328125
2557,-0.991943359375,0.20458984375,0.064208984375,-19.875,0.6875,-5.8125,36.61328125
2559,-0.991943359375,0.20458984375,0.064208984375,-19.875,0.6875,-5.8125,36.61328125
2560,-0.9931640625,0.197021484375,0.0693359375,-21.3125,0.75,-5.3125,36.61328125
2562,-0.9931640625,0.197021484375,0.0693359375,-21.3125,0.75,-5.3125,36.61328125
2564,-0.994873046875,0.18798828125,0.08056640625,-22.875,1.0,-4.9375,36.61328125
2566,-0.994873046875,0.18798828125,0.08056640625,-22.875,1.0,-4.9375,36.61328125
2568,-0.998046875,0.1845703125,0.096923828125,-24.8125,1.3125,-4.1875,36.61328125
2571,-0.998046875,0.1845703125,0.096923828125,-24.8125,1.3125,-4.1875,36.61328125
2573,-1.005859375,0.182373046875,0.10546875,-26.75,1.9375,-3.5,36.61328125
2575,-1.005859375,0.182373046875,0.10546875,-26.75,1.9375,-3.5,36.61328125
2576,-1.005859375,0.182373046875,0.10546875,-26.75,2.8125,-3.25,36.61328125
2578,-1.00830078125,0.175537109375,0.100341796875,-27.8125,2.8125,-3.25,36.61328125
2580,-1.00830078125,0.175537109375,0.100341796875,-27.8125,2.8125,-3.25,36.61328125
2582,-1.0087890625,0.168212890625,0.08154296875,-27.3125,4.0625,-2.875,36.61328125
2584,-1.0087890625,0.168212890625,0.08154296875,-27.3125,4.0625,-2.875,36.61328125
2586,-1.00830078125,0.16552734375,0.0478515625,-23.9375,5.375,-2.8125,36.61328125
2588,-1.00830078125,0.16552734375,0.0478515625,-23.9375,5.375,-2.8125,36.61328125
2590,-1.00830078125,0.16552734375,0.0478515625,-18.5625,6.25,-3.6875,36.61328125
2592,-1.001708984375,0.16357421875,0.010009765625,-18.5625,6.25,-3.6875,36.61328125
2594,-1.001708984375,0.16357421875,0.010009765625,-18.5625,6.25,-4.5625,36.61328125
2596,-0.98779296875,0.16064453125,-0.01708984375,-12.0,6.75,-4.5625,36.61328125
2598,-0.98779296875,0.16064453125,-0.01708984375,-12.0,6.75,-4.5625,36.61328125
2600,-0.973876953125,0.156494140625,-0.0263671875,-5.8125,7.0625,-5.1875,36.61328125
2602,-0.973876953125,0.156494140625,-0.0263671875,-5.8125,7.0625,-5.1875,36.61328125
2604,-0.963134765625,0.155029296875,-0.02587890625,-0.625,6.875,-5.5,36.61328125
2606,-0.963134765625,0.155029296875,-0.02587890625,-0.625,6.875,-5.5,36.61328125
2608,-0.963134765625,0.155029296875,-0.03271484375,4.75,6.3125,-6.0,36.61328125
2609,-0.95361328125,0.155029296875,-0.03271484375,4.75,6.3125,-6.0,36.61328125
2611,-0.95361328125,0.155029296875,-0.03271484375,4.75,6.3125,-6.0,36.61328125
2614,-0.9462890625,0.152587890625,-0.047119140625,11.375,5.4375,-6.75,36.61328125
2616,-0.9462890625,0.152587890625,-0.047119140625,11.375,5.4375,-6.75,36.61328125
2618,-0.939208984375,0.1494140625,-0.058837890625,18.9375,4.1875,-7.625,36.61328125
2619,-0.939208984375,0.1494140625,-0.058837890625,18.9375,4.1875,-7.625,36.61328125
2621,-0.9248046875,0.1474609375,-0.05712890625,27.25,2.25,-8.875,36.61328125
2623,-0.9248046875,0.1474609375,-0.05712890625,27.25,2.25,-8.875,36.61328125
2625,-0.9248046875,0.1474609375,-0.0400390625,34.4375,0.4375,-10.5,36.61328125
2627,-0.91796875,0.1474609375,-0.0400390625,34.4375,0.4375,-10.5,36.61328125
2629,-0.91796875,0.1474609375,-0.0400390625,34.4375,0.4375,-10.5,36.61328125
2631,-0.9150390625,0.150146484375,-0.008544921875,40.125,-0.6875,-12.3125,36.61328125
2633,-0.9150390625,0.150146484375,-0.008544921875,40.125,-0.6875,-12.3125,36.61328125
2635,-0.917236328125,0.165283203125,0.0185546875,43.8125,-1.1875,-13.9375,36.61328125
2637,-0.917236328125,0.165283203125,0.0185546875,43.8125,-1.1875,-13.9375,36.61328125
2639,-0.921142578125,0.175048828125,0.039794921875,44.9375,-0.5,-15.1875,36.61328125
2641,-0.921142578125,0.175048828125,0.039794921875,44.9375,-0.5,-15.1875,36.61328125
2643,-0.9248046875,0.175537109375,0.05517578125,45.25,-0.1875,-15.9375,36.61328125
2645,-0.9248046875,0.175537109375,0.05517578125,45.25,-0.1875,-15.9375,36.61328125
2647,-0.9248046875,0.175537109375,0.05517578125,45.25,-0.1875,-15.9375,36.61328125
2649,-0.932373046875,0.1767578125,0.0712890625,44.875,0.3125,-16.1875,36.61328125
2651,-0.932373046875,0.1767578125,0.0712890625,44.875,0.3125,-16.1875,36.61328125
2653,-0.93798828125,0.1806640625,0.090087890625,44.25,1.0,-16.0,36.61328125
2655,-0.93798828125,0.1806640625,0.090087890625,44.25,1.0,-16.0,36.61328125
2657,-0.9375,0.176025390625,0.109619140625,43.5,2.1875,-15.6875,36.61328125
2659,-0.9375,0.176025390625,0.109619140625,43.5,2.1875,-15.6875,36.61328125
2661,-0.935791015625,0.166748046875,0.130615234375,42.1875,3.5,-14.8125,36.61328125
2663,-0.935791015625,0.166748046875,0.130615234375,42.1875,3.5,-14.8125,36.61328125
2665,-0.935791015625,0.166748046875,0.130615234375,42.1875,3.5,-14.8125,36.61328125
2667,-0.9404296875,0.167724609375,0.150146484375,40.0625,4.8125,-13.3125,36.61328125
2669,-0.9404296875,0.167724609375,0.150146484375,40.0625,4.8125,-13.3125,36.61328125
2671,-0.947021484375,0.17919921875,0.158203125,38.1875,6.0,-11.375,36.61328125
2673,-0.947021484375,0.17919921875,0.158203125,38.1875,6.0,-11.375,36.61328125
2675,-0.9501953125,0.1923828125,0.151123046875,37.5,6.75,-9.6875,36.6328125
2677,-0.9501953125,0.1923828125,0.151123046875,37.5,6.75,-9.6875,36.6328125
2679,-0.9443359375,0.20849609375,0.1396484375,36.875,6.5625,-7.8125,36.6328125
2681,-0.9443359375,0.20849609375,0.1396484375,36.875,6.5625,-7.8125,36.6328125
2683,-0.932373046875,0.216064453125,0.137939453125,35.0625,5.0,-5.625,36.6328125
2685,-0.932373046875,0.216064453125,0.137939453125,35.0625,5.0,-5.625,36.6328125
2687,-0.932373046875,0.216064453125,0.137939453125,35.0625,5.0,-5.625,36.6328125
2689,-0.92529296875,0.223876953125,0.1396484375,31.3125,3.0,-3.6875,36.6328125
2691,-0.92529296875,0.223876953125,0.1396484375,31.3125,3.0,-3.6875,36.6328125
2693,-0.927001953125,0.23681640625,0.126953125,27.375,1.4375,-2.375,36.6328125
2695,-0.927001953125,0.23681640625,0.126953125,27.375,1.4375,-2.375,36.6328125
2697,-0.920166015625,0.243408203125,0.09326171875,24.6875,-0.0625,-2.0,36.6328125
2699,-0.920166015625,0.243408203125,0.09326171875,24.6875,-0.0625,-2.0,36.6328125
2700,-0.920166015625,0.243408203125,0.09326171875,23.5625,-1.875,-2.75,36.6328125
2703,-0.902587890625,0.250732421875,0.050048828125,23.5625,-1.875,-2.75,36.6328125
2705,-0.902587890625,0.250732421875,0.050048828125,23.5625,-1.875,-5.0625,36.6328125
2707,-0.87841796875,0.253173828125,0.012939453125,22.25,-4.0625,-5.0625,36.6328125
2709,-0.87841796875,0.253173828125,0.012939453125,22.25,-4.0625,-5.0625,36.6328125
2711,-0.857177734375,0.24267578125,-0.00439453125,18.5625,-5.4375,-9.5,36.6328125
2713,-0.857177734375,0.24267578125,-0.00439453125,18.5625,-5.4375,-9.5,36.6328125
2714,-0.875244140625,0.254150390625,0.017578125,12.8125,-7.75,-11.625,36.6328125
2716,-0.875244140625,0.254150390625,0.017578125,12.8125,-7.75,-11.625,36.6328125
2718,-0.854248046875,0.2392578125,0.02978515625,5.25,-8.9375,-13.625,36.6328125
2720,-0.854248046875,0.2392578125,0.02978515625,5.25,-8.9375,-13.625,36.6328125
2722,-0.854248046875,0.2392578125,0.02978515625,5.25,-8.9375,-13.625,36.6328125
2725,-0.841796875,0.225341796875,0.049560546875,-3.125,-7.6875,-16.5,36.6328125
2727,-0.841796875,0.225341796875,0.049560546875,-3.125,-7.6875,-16.5,36.6328125
2729,-0.83642578125,0.21630859375,0.0732421875,-11.75,-5.8125,-19.1875,36.6328125
2730,-0.83642578125,0.21630859375,0.0732421875,-11.75,-5.8125,-19.1875,36.6328125
2732,-0.835205078125,0.203125,0.097412109375,-20.875,-3.75,-21.625,36.6328125
2734,-0.835205078125,0.203125,0.097412109375,-20.875,-3.75,-21.625,36.6328125
2736,-0.849365234375,0.181884765625,0.12890625,-30.9375,-0.625,-24.0625,36.6328125
2738,-0.849365234375,0.181884765625,0.12890625,-30.9375,-0.625,-24.0625,36.6328125
2740,-0.849365234375,0.181884765625,0.12890625,-30.9375,-0.625,-24.0625,36.6328125
2742,-0.882568359375,0.153564453125,0.1708984375,-42.75,3.0625,-26.5625,36.6328125
2744,-0.882568359375,0.153564453125,0.1708984375,-42.75,3.0625,-26.5625,36.6328125
2746,-0.9169921875,0.117919921875,0.22216796875,-55.3125,5.5625,-29.1875,36.6328125
2748,-0.9169921875,0.117919921875,0.22216796875,-55.3125,5.5625,-29.1875,36.6328125
2750,-0.93359375,0.09716796875,0.2705078125,-68.375,8.0,-30.8125,36.6328125
2752,-0.93359375,0.09716796875,0.2705078125,-68.375,8.0,-30.8125,36.6328125
2754,-0.95166015625,0.09619140625,0.30126953125,-82.125,13.75,-31.5625,36.6328125
2756,-0.95166015625,0.09619140625,0.30126953125,-82.125,13.75,-31.5625,36.6328125
2758,-0.95166015625,0.09619140625,0.30126953125,-82.125,13.75,-31.5625,36.6328125
2760,-0.971435546875,0.10888671875,0.312744140625,-93.625,21.875,-31.125,36.6328125
2762,-0.971435546875,0.10888671875,0.312744140625,-93.625,21.875,-31.125,36.6328125
2763,-0.967529296875,0.112548828125,0.295166015625,-101.5625,29.6875,-29.4375,36.6328125
2765,-0.967529296875,0.112548828125,0.295166015625,-101.5625,29.6875,-29.4375,36.6328125
2768,-0.966064453125,0.1005859375,0.261474609375,-105.5,34.9375,-27.25,36.6328125
2770,-0.966064453125,0.1005859375,0.261474609375,-105.5,34.9375,-27.25,36.6328125
2772,-0.9677734375,0.078369140625,0.218994140625,-105.1875,37.875,-23.9375,36.6328125
2774,-0.9677734375,0.078369140625,0.218994140625,-105.1875,37.875,-23.9375,36.6328125
2775,-0.9677734375,0.078369140625,0.218994140625,-105.1875,37.875,-23.9375,36.6328125
2777,-0.96923828125,0.05859375,0.176513671875,-101.125,39.375,-19.25,36.6328125
2779,-0.96923828125,0.05859375,0.176513671875,-101.125,39.375,-19.25,36.6328125
2781,-0.974609375,0.046630859375,0.127685546875,-93.625,40.6875,-14.1875,36.6328125
2783,-0.974609375,0.046630859375,0.127685546875,-93.625,40.6875,-14.1875,36.6328125
2785,-0.97998046875,0.042724609375,0.06982421875,-83.6875,41.25,-8.9375,36.6328125
2787,-0.97998046875,0.042724609375,0.06982421875,-83.6875,41.25,-8.9375,36.6328125
2789,-0.97607421875,0.049072265625,0.010498046875,-72.3125,40.375,-4.4375,36.6328125
2791,-0.97607421875,0.049072265625,0.010498046875,-72.3125,40.375,-4.4375,36.6328125
2793,-0.97607421875,0.049072265625,0.010498046875,-72.3125,40.375,-4.4375,36.6328125
2795,-0.963623046875,0.05859375,-0.041259765625,-60.9375,37.6875,-0.6875,36.6328125
2797,-0.963623046875,0.05859375,-0.041259765625,-60.9375,37.6875,-0.6875,36.6328125
2799,-0.944580078125,0.072998046875,-0.081787109375,-50.9375,34.9375,2.625,36.6328125
2801,-0.944580078125,0.072998046875,-0.081787109375,-50.9375,34.9375,2.625,36.6328125
2803,-0.921142578125,0.091796875,-0.112060546875,-42.625,32.6875,5.0,36.6328125
2805,-0.921142578125,0.091796875,-0.112060546875,-42.625,32.6875,5.0,36.6328125
2807,-0.921142578125,0.091796875,-0.112060546875,-42.625,31.0625,6.625,36.6328125
2809,-0.9072265625,0.1171875,-0.144287109375,-38.0625,31.0625,6.625,36.6328125
2811,-0.9072265625,0.1171875,-0.144287109375,-38.0625,31.0625,6.625,36.6328125
2813,-0.89599609375,0.1376953125,-0.166015625,-37.0625,29.6875,7.0625,36.6328125
2815,-0.89599609375,0.1376953125,-0.166015625,-37.0625,29.6875,7.0625,36.6328125
2817,-0.883056640625,0.161865234375,-0.18408203125,-38.5625,29.4375,6.4375,36.62890625
2819,-0.883056640625,0.161865234375,-0.18408203125,-38.5625,29.4375,6.4375,36.62890625
2821,-0.869873046875,0.175048828125,-0.192138671875,-42.375,29.9375,4.625,36.62890625
2823,-0.869873046875,0.175048828125,-0.192138671875,-42.375,29.9375,4.625,36.62890625
2825,-0.85986328125,0.177734375,-0.185546875,-48.5625,29.875,1.75,36.62890625
2827,-0.85986328125,0.177734375,-0.185546875,-48.5625,29.875,1.75,36.62890625
2829,-0.85986328125,0.177734375,-0.185546875,-48.5625,29.875,-14.25,36.62890625
2831,-0.85302734375,0.177490234375,-0.175537109375,-56.4375,28.8125,-2.125,36.62890625
2833,-0.85302734375,0.177490234375,-0.175537109375,-56.4375,28.8125,-6.8125,36.62890625
2835,-0.8447265625,0.171875,-0.165771484375,-64.8125,27.1875,-6.8125,36.62890625
2837,-0.8447265625,0.171875,-0.165771484375,-64.8125,27.1875,-6.8125,36.62890625
2839,-0.8408203125,0.160400390625,-0.149169921875,-73.5,24.9375,-11.4375,36.62890625
2841,-0.8408203125,0.160400390625,-0.149169921875,-73.5,24.9375,-11.4375,36.62890625
2843,-0.85009765625,0.142578125,-0.12841796875,-81.1875,22.8125,-15.125,36.62890625
2845,-0.85009765625,0.142578125,-0.12841796875,-81.1875,22.8125,-15.125,36.62890625
2847,-0.875732421875,0.120361328125,-0.11572265625,-86.0,21.4375,-17.75,36.62890625
2849,-0.875732421875,0.120361328125,-0.11572265625,-86.0,21.4375,-17.75,36.62890625
2851,-0.875732421875,0.120361328125,-0.11572265625,-86.0,21.4375,-17.75,36.62890625
2853,-0.908935546875,0.101318359375,-0.119873046875,-87.1875,22.1875,-20.125,36.62890625
2855,-0.908935546875,0.101318359375,-0.119873046875,-87.1875,22.1875,-20.125,36.62890625
2857,-0.941162109375,0.085205078125,-0.12939453125,-83.6875,24.4375,-22.3125,36.62890625
2859,-0.941162109375,0.085205078125,-0.12939453125,-83.6875,24.4375,-22.3125,36.62890625
2861,-0.968994140625,0.069091796875,-0.137451171875,-74.375,25.875,-23.5,36.62890625
2863,-0.968994140625,0.069091796875,-0.137451171875,-74.375,25.875,-23.5,36.62890625
2865,-0.996826171875,0.059326171875,-0.1337890625,-60.9375,25.5,-23.625,36.62890625
2867,-0.996826171875,0.059326171875,-0.1337890625,-60.9375,25.5,-23.625,36.62890625
2869,-1.0244140625,0.041748046875,-0.119873046875,-44.9375,23.625,-22.3125,36.62890625
2871,-1.0244140625,0.041748046875,-0.119873046875,-44.9375,23.625,-22.3125,36.62890625
2873,-1.0244140625,0.041748046875,-0.119873046875,-28.9375,20.875,-20.1875,36.62890625
2875,-1.051025390625,0.0322265625,-0.0986328125,-27.9375,20.875,-20.1875,36.62890625
2878,-1.051025390625,0.0322265625,-0.0986328125,-27.9375,20.875,-20.1875,36.62890625
2879,-1.068115234375,0.022216796875,-0.0732421875,-10.6875,18.9375,-17.3125,36.62890625
2881,-1.068115234375,0.022216796875,-0.0732421875,-10.6875,18.9375,-17.3125,36.62890625
2883,-1.07470703125,0.015625,-0.05078125,6.0,17.6875,-13.625,36.62890625
2885,-1.07470703125,0.015625,-0.05078125,6.0,17.6875,-13.625,36.62890625
2887,-1.071044921875,0.01806640625,-0.0283203125,20.5,16.9375,-9.25,36.62890625
2889,-1.071044921875,0.01806640625,-0.0283203125,20.5,16.9375,-9.25,36.62890625
2891,-1.071044921875,0.01806640625,-0.00537109375,31.25,16.375,-4.25,36.62890625
2893,-1.060302734375,0.0263671875,-0.00537109375,31.25,16.375,-4.25,36.62890625
2895,-1.060302734375,0.0263671875,-0.00537109375,31.25,16.375,-4.25,36.62890625
2897,-1.046630859375,0.039794921875,0.019775390625,38.0,15.875,1.0625,36.62890625
2899,-1.046630859375,0.039794921875,0.019775390625,38.0,15.875,1.0625,36.62890625
2901,-1.029296875,0.057861328125,0.03173828125,40.5625,16.5,5.75,36.62890625
2903,-1.029296875,0.057861328125,0.03173828125,40.5625,16.5,5.75,36.62890625
2905,-1.0087890625,0.08251953125,0.0224609375,40.0,17.75,10.0625,36.62890625
2907,-1.0087890625,0.08251953125,0.0224609375,40.0,17.75,10.0625,36.62890625
2909,-1.0087890625,0.08251953125,0.0224609375,37.4375,19.4375,13.25,36.62890625
2910,-0.983642578125,0.1103515625,-0.001220703125,37.4375,19.4375,13.25,36.62890625
2913,-0.983642578125,0.1103515625,-0.001220703125,37.4375,19.4375,13.25,36.62890625
2914,-0.962890625,0.1376953125,-0.028564453125,33.375,20.8125,15.125,36.62890625
2916,-0.962890625,0.1376953125,-0.028564453125,33.375,20.8125,15.125,36.62890625
2918,-0.955810546875,0.164306640625,-0.051025390625,27.5625,21.4375,16.25,36.62890625
2921,-0.955810546875,0.164306640625,-0.051025390625,27.5625,21.4375,16.25,36.62890625
2923,-0.958251953125,0.1962890625,-0.063720703125,20.125,21.8125,16.4375,36.62890625
2925,-0.958251953125,0.1962890625,-0.063720703125,20.125,21.8125,16.4375,36.62890625
2927,-0.96240234375,0.234619140625,-0.071533203125,12.1875,22.4375,15.625,36.62890625
2928,-0.96240234375,0.234619140625,-0.071533203125,12.1875,22.4375,15.625,36.62890625
2930,-0.96240234375,0.234619140625,-0.071533203125,12.1875,22.4375,15.625,36.62890625
2932,-0.952392578125,0.264892578125,-0.084228515625,4.0625,23.625,14.0,36.62890625
2934,-0.952392578125,0.264892578125,-0.084228515625,4.0625,23.625,14.0,36.62890625
2936,-0.9296875,0.27734375,-0.09326171875,-4.9375,25.375,12.0625,36.62890625
2938,-0.9296875,0.27734375,-0.09326171875,-4.9375,25.375,12.0625,36.62890625
2940,-0.91748046875,0.271484375,-0.091552734375,-13.8125,27.3125,10.25,36.62890625
2943,-0.91748046875,0.271484375,-0.091552734375,-13.8125,27.3125,10.25,36.62890625
2945,-0.92626953125,0.251220703125,-0.08447265625,-22.5,29.25,8.875,36.62890625
2946,-0.92626953125,0.251220703125,-0.08447265625,-22.5,29.25,8.875,36.62890625
2948,-0.92626953125,0.251220703125,-0.08447265625,-22.5,29.25,8.875,36.62890625
2950,-0.95068359375,0.2265625,-0.083740234375,-28.5625,30.5625,7.9375,36.62890625
2952,-0.95068359375,0.2265625,-0.083740234375,-28.5625,30.5625,7.9375,36.62890625
2954,-0.968505859375,0.202880859375,-0.09912109375,-30.5625,30.875,6.875,36.62890625
2956,-0.968505859375,0.202880859375,-0.09912109375,-30.5625,30.875,6.875,36.62890625
2958,-0.97509765625,0.18798828125,-0.1181640625,-28.9375,30.75,5.0,36.59375
2960,-0.97509765625,0.18798828125,-0.1181640625,-28.9375,30.75,5.0,36.59375
2962,-0.97509765625,0.18798828125,-0.1181640625,-28.9375,30.75,5.0,36.59375
2964,-0.971923828125,0.17431640625,-0.135009765625,-24.1875,30.625,2.6875,36.59375
2966,-0.971923828125,0.17431640625,-0.135009765625,-24.1875,30.625,2.6875,36.59375
2968,-0.970703125,0.156982421875,-0.141357421875,-18.3125,30.5,1.3125,36.59375
2970,-0.970703125,0.156982421875,-0.141357421875,-18.3125,30.5,1.3125,36.59375
2971,-0.9736328125,0.136962890625,-0.130859375,-12.25,30.5,0.5,36.59375
2973,-0.9736328125,0.136962890625,-0.130859375,-12.25,30.5,0.5,36.59375
2975,-0.986328125,0.111572265625,-0.1162109375,-6.75,31.0,0.6875,36.59375
2977,-0.986328125,0.111572265625,-0.1162109375,-6.75,31.0,0.6875,36.59375
2979,-0.986328125,0.111572265625,-0.1162109375,-6.75,31.0,0.6875,36.59375
2981,-1.002685546875,0.086181640625,-0.1025390625,-1.8125,31.6875,1.25,36.59375
2983,-1.002685546875,0.086181640625,-0.1025390625,-1.8125,31.6875,1.25,36.59375
2985,-1.02490234375,0.06884765625,-0.10205078125,2.75,32.5,2.3125,36.59375
2988,-1.02490234375,0.06884765625,-0.10205078125,2.75,32.5,2.3125,36.59375
2989,-1.047607421875,0.0625,-0.10986328125,6.625,32.75,3.5625,36.59375
2991,-1.047607421875,0.0625,-0.10986328125,6.625,32.75,3.5625,36.59375
2993,-1.05322265625,0.056396484375,-0.1123046875,11.5625,32.6875,4.4375,36.59375
2995,-1.05322265625,0.056396484375,-0.1123046875,11.5625,32.6875,4.4375,36.59375
2997,-1.05322265625,0.056396484375,-0.1123046875,11.5625,33.375,5.1875,36.59375
2999,-1.052978515625,0.055908203125,-0.119873046875,18.25,33.375,5.1875,36.59375
3001,-1.052978515625,0.055908203125,-0.119873046875,18.25,33.375,5.1875,36.59375
3003,-1.050048828125,0.059326171875,-0.130615234375,25.6875,34.8125,6.375,36.59375
