time,acc_x,acc_y,acc_z,gyro_x,gyro_y,gyro_z
415,-1.028564453125,0.398193359375,0.39794921875,-19.25,56.5625,-33.375
417,-1.04443359375,0.36376953125,0.355712890625,-20.625,59.9375,-38.625
419,-1.04443359375,0.36376953125,0.355712890625,-20.625,59.9375,-38.625
421,-1.06494140625,0.33056640625,0.312744140625,-22.5625,63.3125,-42.8125
423,-1.06494140625,0.33056640625,0.312744140625,-22.5625,63.3125,-42.8125
425,-1.083740234375,0.298828125,0.27734375,-24,66.125,-45.3125
427,-1.083740234375,0.298828125,0.27734375,-24,66.125,-45.3125
429,-1.091796875,0.271728515625,0.246337890625,-24.6875,67.9375,-46.125
431,-1.091796875,0.271728515625,0.246337890625,-24.6875,67.9375,-46.125
433,-1.091796875,0.271728515625,0.246337890625,-24.6875,67.9375,-46.125
435,-1.09326171875,0.2509765625,0.21435546875,-24.625,68.9375,-45.5625
437,-1.09326171875,0.2509765625,0.21435546875,-24.625,68.9375,-45.5625
439,-1.0966796875,0.23974609375,0.185791015625,-23.9375,69.1875,-43.5625
441,-1.0966796875,0.23974609375,0.185791015625,-23.9375,69.1875,-43.5625
443,-1.10888671875,0.2421875,0.1640625,-22.8125,68.375,-39.75
445,-1.10888671875,0.2421875,0.1640625,-22.8125,68.375,-39.75
447,-1.10888671875,0.3046875,0.150390625,-21.3125,67.3125,-34.375
449,-1.12451171875,0.2509765625,0.150390625,-21.3125,67.3125,-34.375
450,-1.12451171875,0.2509765625,0.150390625,-21.3125,67.3125,-34.375
452,-1.1279296875,0.254638671875,0.13916015625,-18.9375,66.5625,-28.25
455,-1.1279296875,0.254638671875,0.13916015625,-18.9375,66.5625,-28.25
457,-1.11767578125,0.256103515625,0.13330078125,-15.3125,66.8125,-22.625
459,-1.11767578125,0.256103515625,0.13330078125,-15.3125,66.8125,-22.625
461,-1.1044921875,0.259765625,0.134033203125,-10.875,67.6875,-17.75
463,-1.1044921875,0.259765625,0.134033203125,-10.875,67.6875,-17.75
465,-1.096923828125,0.26416015625,0.139404296875,-5.875,68.75,-14.0625
467,-1.096923828125,0.26416015625,0.139404296875,-5.875,68.75,-14.0625
469,-1.096923828125,0.26318359375,0.14794921875,-0.875,69.875,-11.1875
471,-1.090087890625,0.26318359375,0.14794921875,-0.875,69.875,-11.1875
473,-1.090087890625,0.26318359375,0.14794921875,-0.875,69.875,-11.1875
475,-1.079833984375,0.26025390625,0.1552734375,3.3125,70.9375,-9.3125
477,-1.079833984375,0.26025390625,0.1552734375,3.3125,70.9375,-9.3125
479,-1.06787109375,0.254638671875,0.15771484375,6.9375,71.6875,-8.375
481,-1.06787109375,0.254638671875,0.15771484375,6.9375,71.6875,-8.375
483,-1.060546875,0.2451171875,0.156005859375,9.6875,72.375,-7.9375
485,-1.060546875,0.2451171875,0.156005859375,9.6875,72.375,-7.9375
487,-1.059326171875,0.235107421875,0.150146484375,11.5,73.5625,-7.25
489,-1.059326171875,0.235107421875,0.150146484375,11.5,73.5625,-7.25
491,-1.059326171875,0.235107421875,0.150146484375,11.5,73.5625,-7.25
493,-1.056640625,0.22412109375,0.140625,12.625,75.125,-6.125
495,-1.056640625,0.22412109375,0.140625,12.625,75.125,-6.125
496,-1.048095703125,0.21484375,0.130859375,13.125,76.625,-4.75
498,-1.048095703125,0.21484375,0.130859375,13.125,76.625,-4.75
500,-1.033203125,0.208251953125,0.12060546875,13.0625,77.4375,-4
503,-1.033203125,0.208251953125,0.12060546875,13.0625,77.4375,-4
505,-1.03564453125,0.205078125,0.111572265625,12.8125,77.625,-2.875
507,-1.03564453125,0.205078125,0.111572265625,12.8125,77.625,-2.875
508,-1.03564453125,0.205078125,0.111572265625,12.8125,78,-1.0625
510,-1.03466796875,0.205810546875,0.10986328125,12.0625,78,-1.0625
512,-1.03466796875,0.205810546875,0.10986328125,12.0625,78,-1.0625
514,-1.029296875,0.208740234375,0.109619140625,11.125,78.5625,0.875
516,-1.029296875,0.208740234375,0.109619140625,11.125,78.5625,0.875
518,-1.0166015625,0.211181640625,0.110107421875,10.5,79.25,2.3125
520,-1.0166015625,0.211181640625,0.110107421875,10.5,79.25,2.3125
522,-1.001953125,0.2158203125,0.109130859375,10.125,80.4375,3.25
524,-1.001953125,0.2158203125,0.109130859375,10.125,80.4375,3.25
526,-1.001953125,0.2158203125,0.10693359375,9.8125,81.875,3.6875
528,-0.99072265625,0.221435546875,0.10693359375,9.8125,81.875,3.6875
530,-0.99072265625,0.221435546875,0.10693359375,9.8125,81.875,3.6875
532,-0.9853515625,0.228515625,0.10498046875,9.3125,82.75,3.875
534,-0.9853515625,0.228515625,0.10498046875,9.3125,82.75,3.875
536,-0.97509765625,0.2314453125,0.102783203125,8.1875,83.3125,3.75
538,-0.97509765625,0.2314453125,0.102783203125,8.1875,83.3125,3.75
540,-0.96435546875,0.224609375,0.0966796875,6.6875,83.875,3.25
542,-0.96435546875,0.224609375,0.0966796875,6.6875,83.875,3.25
544,-0.96435546875,0.224609375,0.0966796875,6.6875,83.875,3.25
546,-0.9521484375,0.21630859375,0.08740234375,5.375,84.875,2.625
548,-0.9521484375,0.21630859375,0.08740234375,5.375,84.875,2.625
550,-0.94189453125,0.213623046875,0.076416015625,4.5625,85.9375,2
552,-0.94189453125,0.213623046875,0.076416015625,4.5625,85.9375,2
554,-0.931396484375,0.208740234375,0.062255859375,4,86.9375,1.4375
556,-0.931396484375,0.208740234375,0.062255859375,4,86.9375,1.4375
558,-0.924560546875,0.19873046875,0.044921875,3.8125,87.8125,1.125
559,-0.924560546875,0.19873046875,0.044921875,3.8125,87.8125,1.125
561,-0.924560546875,0.19873046875,0.044921875,3.8125,87.8125,1.125
563,-0.921142578125,0.183349609375,0.031005859375,3.5625,88.8125,0.625
565,-0.921142578125,0.183349609375,0.031005859375,3.5625,88.8125,0.625
567,-0.921630859375,0.172119140625,0.014404296875,2.375,90.125,0.25
569,-0.921630859375,0.172119140625,0.014404296875,2.375,90.125,0.25
572,-0.927978515625,0.1689453125,-0.00634765625,0.0625,92,0.1875
574,-0.927978515625,0.1689453125,-0.00634765625,0.0625,92,0.1875
575,-0.927001953125,0.171875,-0.0283203125,-3.0625,94.3125,0
577,-0.927001953125,0.171875,-0.0283203125,-3.0625,94.3125,0
579,-0.927001953125,0.171875,-0.0283203125,-6.25,96.25,-0.5
581,-0.9248046875,0.175537109375,-0.056640625,-6.25,96.25,-0.5
583,-0.9248046875,0.175537109375,-0.056640625,-6.25,96.25,-0.5
585,-0.921875,0.183837890625,-0.082763671875,-9.375,97.9375,-1.4375
587,-0.921875,0.183837890625,-0.082763671875,-9.375,97.9375,-1.4375
590,-0.914794921875,0.195556640625,-0.109130859375,-12.0625,99.3125,-2.4375
592,-0.914794921875,0.195556640625,-0.109130859375,-12.0625,99.3125,-2.4375
594,-0.905029296875,0.2080078125,-0.13330078125,-14.5625,100.25,-3.625
596,-0.905029296875,0.2080078125,-0.13330078125,-14.5625,100.25,-3.625
598,-0.894287109375,0.218505859375,-0.155517578125,-16.25,100.5625,-4.1875
600,-0.894287109375,0.218505859375,-0.155517578125,-16.25,100.5625,-4.1875
602,-0.881591796875,0.230712890625,-0.17431640625,-16.75,99.75,-4.1875
604,-0.881591796875,0.230712890625,-0.17431640625,-16.75,99.75,-4.1875
606,-0.881591796875,0.230712890625,-0.17431640625,-16.75,99.75,-4.1875
608,-0.868896484375,0.247802734375,-0.18408203125,-16.875,98.125,-4.375
610,-0.868896484375,0.247802734375,-0.18408203125,-16.875,98.125,-4.375
611,-0.85595703125,0.26025390625,-0.1904296875,-16.25,96.4375,-4.5625
613,-0.85595703125,0.26025390625,-0.1904296875,-16.25,96.4375,-4.5625
615,-0.846923828125,0.262939453125,-0.1904296875,-15.5,94.5,-5
618,-0.846923828125,0.262939453125,-0.1904296875,-15.5,94.5,-5
620,-0.841796875,0.2666015625,-0.190673828125,-14.5625,92,-5.3125
622,-0.841796875,0.2666015625,-0.190673828125,-14.5625,92,-5.3125
623,-0.841796875,0.2666015625,-0.190673828125,-14.5625,92,-5.3125
625,-0.834228515625,0.272705078125,-0.188720703125,-13.4375,89.3125,-5.5625
627,-0.834228515625,0.272705078125,-0.188720703125,-13.4375,89.3125,-5.5625
633,-0.8310546875,0.27783203125,-0.19091796875,-11.625,86.625,-5.8125
634,-0.833984375,0.27685546875,-0.198486328125,-9.3125,84.625,-6.75
637,-0.833984375,0.27685546875,-0.198486328125,-9.3125,84.625,-6.75
638,-0.846923828125,0.266845703125,-0.205810546875,-6.9375,83.4375,-7.375
640,-0.846923828125,0.266845703125,-0.205810546875,-6.9375,83.4375,-7.375
643,-0.861572265625,0.2529296875,-0.20703125,-4.8125,81.9375,-8.3125
645,-0.861572265625,0.2529296875,-0.20703125,-4.8125,81.9375,-8.3125
647,-0.879638671875,0.240966796875,-0.197509765625,-3.1875,80.5625,-8.8125
649,-0.879638671875,0.240966796875,-0.197509765625,-3.1875,80.5625,-8.8125
651,-0.897705078125,0.216064453125,-0.180908203125,-2.0625,78.875,-9.3125
653,-0.897705078125,0.216064453125,-0.180908203125,-2.0625,78.875,-9.3125
654,-0.897705078125,0.216064453125,-0.180908203125,-2.0625,78.875,-9.3125
656,-0.9052734375,0.189697265625,-0.1689453125,-1.6875,77.875,-9.9375
658,-0.9052734375,0.189697265625,-0.1689453125,-1.6875,77.875,-9.9375
661,-0.9111328125,0.16845703125,-0.161865234375,-1.75,77.8125,-10.1875
663,-0.9111328125,0.16845703125,-0.161865234375,-1.75,77.8125,-10.1875
665,-0.91357421875,0.152099609375,-0.158935546875,-1.4375,78.375,-9.4375
667,-0.91357421875,0.152099609375,-0.158935546875,-1.4375,78.375,-9.4375
669,-0.91357421875,0.147705078125,-0.157958984375,-0.5625,79.125,-7.875
671,-0.91357421875,0.147705078125,-0.157958984375,-0.5625,79.125,-7.875
673,-0.907958984375,0.150146484375,-0.156494140625,1.0625,80.6875,-5.5
675,-0.907958984375,0.150146484375,-0.156494140625,1.0625,80.6875,-5.5
677,-0.907958984375,0.150146484375,-0.156494140625,1.0625,82.9375,-3.125
679,-0.902099609375,0.1572265625,-0.1572265625,3.75,82.9375,-3.125
681,-0.902099609375,0.1572265625,-0.1572265625,3.75,82.9375,-3.125
682,-0.89501953125,0.175048828125,-0.160400390625,7.6875,85.0625,-0.4375
684,-0.89501953125,0.175048828125,-0.160400390625,7.6875,85.0625,-0.4375
687,-0.8818359375,0.1943359375,-0.16064453125,12.5625,87.3125,1.9375
689,-0.8818359375,0.1943359375,-0.16064453125,12.5625,87.3125,1.9375
691,-0.8701171875,0.21142578125,-0.162353515625,17,89.125,3.8125
693,-0.8701171875,0.21142578125,-0.162353515625,17,89.125,3.8125
695,-0.8701171875,0.22314453125,-0.169677734375,20.4375,90.9375,4.9375
697,-0.86279296875,0.22314453125,-0.169677734375,20.4375,90.9375,4.9375
698,-0.86279296875,0.22314453125,-0.169677734375,20.4375,90.9375,4.9375
700,-0.857177734375,0.2294921875,-0.182373046875,23.0625,92.5625,4.75
702,-0.857177734375,0.2294921875,-0.182373046875,23.0625,92.5625,4.75
704,-0.851318359375,0.231689453125,-0.201416015625,24.875,94.3125,4
706,-0.851318359375,0.231689453125,-0.201416015625,24.875,94.3125,4
709,-0.845703125,0.227783203125,-0.226318359375,26.5,96,2.25
711,-0.845703125,0.227783203125,-0.226318359375,26.5,96,2.25
712,-0.840576171875,0.22265625,-0.251708984375,27.5625,97.25,0.625
714,-0.840576171875,0.22265625,-0.251708984375,27.5625,97.25,0.625
716,-0.840576171875,0.22265625,-0.251708984375,27.5625,97.25,0.625
718,-0.836669921875,0.213134765625,-0.271728515625,27.125,97.625,-1.375
720,-0.836669921875,0.213134765625,-0.271728515625,27.125,97.625,-1.375
722,-0.8330078125,0.197998046875,-0.294189453125,25.5625,97.1875,-3.625
724,-0.8330078125,0.197998046875,-0.294189453125,25.5625,97.1875,-3.625
726,-0.827880859375,0.177490234375,-0.32080078125,23.125,95.875,-6
728,-0.827880859375,0.177490234375,-0.32080078125,23.125,95.875,-6
730,-0.827880859375,0.177490234375,-0.32080078125,23.125,95.875,-6
732,-0.82421875,0.15625,-0.341552734375,20.375,93.875,-8.4375
734,-0.82421875,0.15625,-0.341552734375,20.375,93.875,-8.4375
736,-0.822265625,0.142822265625,-0.36083984375,17.8125,91.4375,-10.625
738,-0.822265625,0.142822265625,-0.36083984375,17.8125,91.4375,-10.625
740,-0.816650390625,0.134033203125,-0.37353515625,15.5,88.3125,-12.4375
742,-0.816650390625,0.134033203125,-0.37353515625,15.5,88.3125,-12.4375
744,-0.8115234375,0.128173828125,-0.378173828125,13.125,85.0625,-13.875
746,-0.8115234375,0.128173828125,-0.378173828125,13.125,85.0625,-13.875
748,-0.8115234375,0.128173828125,-0.378173828125,13.125,81.5,-15.125
750,-0.811279296875,0.12548828125,-0.380615234375,10.25,81.5,-15.125
751,-0.811279296875,0.12548828125,-0.380615234375,10.25,81.5,-15.125
753,-0.814453125,0.12548828125,-0.3759765625,7.25,78.3125,-15.9375
756,-0.814453125,0.12548828125,-0.3759765625,7.25,78.3125,-15.9375
758,-0.817138671875,0.12841796875,-0.368408203125,4.0625,76.1875,-16.6875
759,-0.817138671875,0.12841796875,-0.368408203125,4.0625,76.1875,-16.6875
761,-0.8154296875,0.12744140625,-0.362060546875,1.25,74.625,-16.875
763,-0.8154296875,0.12744140625,-0.362060546875,1.25,74.625,-16.875
765,-0.8154296875,0.12744140625,-0.362060546875,1.25,74.625,-16.5625
767,-0.818603515625,0.127685546875,-0.353515625,-1.625,72.875,-16.5625
769,-0.818603515625,0.127685546875,-0.353515625,-1.625,72.875,-16.5625
771,-0.826904296875,0.1328125,-0.3447265625,-5.1875,71.625,-16.6875
773,-0.826904296875,0.1328125,-0.3447265625,-5.1875,71.625,-16.6875
775,-0.829833984375,0.138671875,-0.338623046875,-8.625,70.3125,-16.75
777,-0.829833984375,0.138671875,-0.338623046875,-8.625,70.3125,-16.75
779,-0.829833984375,0.14501953125,-0.329833984375,-11.875,69.75,-16.1875
781,-0.829833984375,0.14501953125,-0.329833984375,-11.875,69.75,-16.1875
783,-0.831787109375,0.1533203125,-0.323486328125,-14.125,69.5625,-15.6875
785,-0.831787109375,0.1533203125,-0.323486328125,-14.125,69.5625,-15.6875
787,-0.831787109375,0.1533203125,-0.323486328125,-14.125,69.5625,-15.6875
789,-0.831787109375,0.158447265625,-0.317626953125,-15.6875,69.875,-14.9375
791,-0.831787109375,0.158447265625,-0.317626953125,-15.6875,69.875,-14.9375
793,-0.826171875,0.164794921875,-0.31103515625,-16.625,70.75,-13.75
795,-0.826171875,0.164794921875,-0.31103515625,-16.625,70.75,-13.75
797,-0.8193359375,0.169677734375,-0.309814453125,-16.75,71.9375,-12
799,-0.8193359375,0.169677734375,-0.309814453125,-16.75,71.9375,-12
801,-0.814208984375,0.17138671875,-0.314453125,-16.1875,74.0625,-10.1875
803,-0.814208984375,0.17138671875,-0.314453125,-16.1875,74.0625,-10.1875
805,-0.814208984375,0.17138671875,-0.314453125,-16.1875,74.0625,-10.1875
807,-0.806884765625,0.171875,-0.32568359375,-14.6875,76.125,-8.375
809,-0.806884765625,0.171875,-0.32568359375,-14.6875,76.125,-8.375
811,-0.796630859375,0.17138671875,-0.341064453125,-11.625,78.4375,-6.25
813,-0.796630859375,0.17138671875,-0.341064453125,-11.625,78.4375,-6.25
815,-0.783447265625,0.171142578125,-0.35986328125,-6.9375,80.5625,-4.375
817,-0.783447265625,0.171142578125,-0.35986328125,-6.9375,80.5625,-4.375
819,-0.783447265625,0.171142578125,-0.38037109375,-1.5625,81.875,-2.9375
821,-0.76220703125,0.171630859375,-0.38037109375,-1.5625,81.875,-2.9375
823,-0.76220703125,0.171630859375,-0.400634765625,3.6875,82.9375,-1.625
825,-0.74609375,0.172119140625,-0.400634765625,3.6875,82.9375,-1.625
827,-0.74609375,0.172119140625,-0.400634765625,3.6875,82.9375,-1.625
829,-0.742431640625,0.171142578125,-0.42431640625,7.875,83.5,-0.4375
831,-0.742431640625,0.171142578125,-0.42431640625,7.875,83.5,-0.4375
833,-0.738525390625,0.162109375,-0.44482421875,11.5,83.625,0.6875
835,-0.738525390625,0.162109375,-0.44482421875,11.5,83.625,0.6875
836,-0.7265625,0.152099609375,-0.463134765625,14,83.125,1.3125
838,-0.7265625,0.152099609375,-0.463134765625,14,83.125,1.3125
840,-0.7265625,0.152099609375,-0.463134765625,14,83.125,1.3125
842,-0.71533203125,0.144775390625,-0.484130859375,14.625,81.9375,1.375
845,-0.71533203125,0.144775390625,-0.484130859375,14.625,81.9375,1.375
847,-0.702880859375,0.135009765625,-0.499755859375,14,79.5625,1
849,-0.702880859375,0.135009765625,-0.499755859375,14,79.5625,1
850,-0.690185546875,0.12646484375,-0.515380859375,12.6875,75.6875,0.1875
852,-0.690185546875,0.12646484375,-0.515380859375,12.6875,75.6875,0.1875
854,-0.679443359375,0.119873046875,-0.525146484375,11.0625,70.8125,-0.8125
856,-0.679443359375,0.119873046875,-0.525146484375,11.0625,70.8125,-0.8125
858,-0.679443359375,0.119873046875,-0.525146484375,11.0625,70.8125,-0.8125
861,-0.67529296875,0.115478515625,-0.52734375,9.125,65.6875,-1.9375
863,-0.67529296875,0.115478515625,-0.52734375,9.125,65.6875,-1.9375
865,-0.681396484375,0.116455078125,-0.523193359375,7.25,60.625,-3.375
867,-0.681396484375,0.116455078125,-0.523193359375,7.25,60.625,-3.375
869,-0.69091796875,0.120361328125,-0.511474609375,5.125,56.625,-4.9375
871,-0.69091796875,0.120361328125,-0.511474609375,5.125,56.625,-4.9375
873,-0.697509765625,0.121337890625,-0.495849609375,3.125,53.6875,-6.3125
875,-0.697509765625,0.121337890625,-0.495849609375,3.125,53.6875,-6.3125
877,-0.7021484375,0.119384765625,-0.480712890625,1.0625,51.9375,-7.5
879,-0.7021484375,0.119384765625,-0.480712890625,1.0625,51.9375,-7.5
881,-0.7021484375,0.119384765625,-0.4658203125,-1.25,51,-8.5
882,-0.709228515625,0.12158203125,-0.4658203125,-1.25,51,-8.5
885,-0.709228515625,0.12158203125,-0.4658203125,-1.25,51,-8.5
887,-0.7177734375,0.126953125,-0.45068359375,-3.4375,51.0625,-9.0625
888,-0.7177734375,0.126953125,-0.45068359375,-3.4375,51.0625,-9.0625
891,-0.724853515625,0.134521484375,-0.438232421875,-5.1875,52.3125,-9.4375
893,-0.724853515625,0.134521484375,-0.438232421875,-5.1875,52.3125,-9.4375
895,-0.72998046875,0.141845703125,-0.430908203125,-6.375,54.6875,-9.5625
897,-0.72998046875,0.141845703125,-0.430908203125,-6.375,54.6875,-9.5625
899,-0.73388671875,0.145751953125,-0.426025390625,-7,57.75,-9.1875
901,-0.73388671875,0.145751953125,-0.426025390625,-7,57.75,-9.1875
902,-0.73388671875,0.145751953125,-0.426025390625,-7,57.75,-9.1875
904,-0.73779296875,0.148193359375,-0.4296875,-7.5625,61.25,-8.0625
906,-0.73779296875,0.148193359375,-0.4296875,-7.5625,61.25,-8.0625
908,-0.73583984375,0.149169921875,-0.438720703125,-7.5625,64.875,-6.375
910,-0.73583984375,0.149169921875,-0.438720703125,-7.5625,64.875,-6.375
913,-0.7119140625,0.137451171875,-0.469482421875,-5.5625,67.75,-3.6875
914,-0.7119140625,0.137451171875,-0.469482421875,-5.5625,67.75,-3.6875
916,-0.69091796875,0.1328125,-0.50244140625,-0.5625,69,0.3125
918,-0.69091796875,0.1328125,-0.50244140625,-0.5625,69,0.3125
920,-0.69091796875,0.1328125,-0.50244140625,-0.5625,69,0.3125
922,-0.732666015625,0.157958984375,-0.471923828125,-2.375,70.375,1.625
924,-0.732666015625,0.157958984375,-0.471923828125,-2.375,70.375,1.625
926,-0.743896484375,0.199462890625,-0.47412109375,-7.5,72.875,1.1875
928,-0.743896484375,0.199462890625,-0.47412109375,-7.5,72.875,1.1875
930,-0.714599609375,0.2138671875,-0.503662109375,-9.375,74.875,1.6875
932,-0.714599609375,0.2138671875,-0.503662109375,-9.375,74.875,1.6875
933,-0.714599609375,0.2138671875,-0.503662109375,-9.375,74.875,1.6875
936,-0.686767578125,0.214599609375,-0.521728515625,-8.9375,75.3125,2.3125
938,-0.686767578125,0.214599609375,-0.521728515625,-8.9375,75.3125,2.3125
940,-0.673583984375,0.229736328125,-0.53466796875,-8.0625,74.5,2.25
942,-0.673583984375,0.229736328125,-0.53466796875,-8.0625,74.5,2.25
943,-0.67138671875,0.240478515625,-0.54541015625,-7.25,73,1.5625
945,-0.67138671875,0.240478515625,-0.54541015625,-7.25,73,1.5625
947,-0.674560546875,0.234130859375,-0.557861328125,-6.375,70.9375,0.375
949,-0.674560546875,0.234130859375,-0.557861328125,-6.375,70.9375,0.375
951,-0.674560546875,0.234130859375,-0.557861328125,-6.375,70.9375,0.375
953,-0.672607421875,0.22216796875,-0.574951171875,-4.1875,68.9375,-0.6875
955,-0.672607421875,0.22216796875,-0.574951171875,-4.1875,68.9375,-0.6875
958,-0.671875,0.2158203125,-0.5849609375,-1.375,66.3125,-1.625
959,-0.671875,0.2158203125,-0.5849609375,-1.375,66.3125,-1.625
961,-0.6728515625,0.209716796875,-0.585693359375,1,63,-2.6875
963,-0.6728515625,0.209716796875,-0.585693359375,1,63,-2.6875
965,-0.68017578125,0.2041015625,-0.582275390625,2.3125,59.5625,-3.5
967,-0.68017578125,0.2041015625,-0.582275390625,2.3125,59.5625,-3.5
969,-0.68017578125,0.2041015625,-0.582275390625,2.3125,59.5625,-3.5
971,-0.693603515625,0.20166015625,-0.575439453125,2.8125,56.4375,-4.125
973,-0.693603515625,0.20166015625,-0.575439453125,2.8125,56.4375,-4.125
975,-0.707275390625,0.19921875,-0.5703125,2.3125,54.4375,-4.9375
977,-0.707275390625,0.19921875,-0.5703125,2.3125,54.4375,-4.9375
979,-0.7119140625,0.19140625,-0.574951171875,1.5625,52.875,-5.0625
981,-0.7119140625,0.19140625,-0.574951171875,1.5625,52.875,-5.0625
983,-0.7099609375,0.181640625,-0.580322265625,0.9375,51.5,-4.6875
985,-0.7099609375,0.181640625,-0.580322265625,0.9375,51.5,-4.6875
987,-0.7099609375,0.18115234375,-0.581787109375,0.6875,49.625,-4.25
989,-0.701904296875,0.18115234375,-0.581787109375,0.6875,49.625,-4.25
991,-0.701904296875,0.18115234375,-0.581787109375,0.6875,49.625,-4.25
993,-0.6982421875,0.18359375,-0.575927734375,0.625,48.25,-3.25
995,-0.6982421875,0.18359375,-0.575927734375,0.625,48.25,-3.25
997,-0.69580078125,0.186767578125,-0.5732421875,1.375,47.5625,-1.875
999,-0.69580078125,0.186767578125,-0.5732421875,1.375,47.5625,-1.875
1001,-0.693603515625,0.19287109375,-0.562255859375,2.125,47.75,-0.0625
1003,-0.693603515625,0.19287109375,-0.562255859375,2.125,47.75,-0.0625
1005,-0.690673828125,0.205078125,-0.551513671875,3.625,48.5625,1.25
1007,-0.690673828125,0.205078125,-0.551513671875,3.625,48.5625,1.25
1009,-0.690673828125,0.205078125,-0.551513671875,3.625,48.5625,1.875
1011,-0.686279296875,0.2236328125,-0.539794921875,5.875,50.3125,1.875
1013,-0.686279296875,0.2236328125,-0.539794921875,5.875,50.3125,1.875
1015,-0.680908203125,0.244140625,-0.531494140625,8.0625,52.1875,2.125
1017,-0.680908203125,0.244140625,-0.531494140625,8.0625,52.1875,2.125
1019,-0.67333984375,0.2646484375,-0.52685546875,10.3125,54.5,1.625
1021,-0.67333984375,0.2646484375,-0.52685546875,10.3125,54.5,1.625
1022,-0.66943359375,0.281494140625,-0.51220703125,11.0625,57.625,0.5
1024,-0.66943359375,0.281494140625,-0.51220703125,11.0625,57.625,0.5
1027,-0.66943359375,0.281494140625,-0.51220703125,10.625,60.8125,-1.5
1029,-0.669677734375,0.295166015625,-0.51220703125,10.625,60.8125,-1.5
1031,-0.669677734375,0.295166015625,-0.51220703125,10.625,60.8125,-1.5
1033,-0.66650390625,0.30517578125,-0.529296875,10.5,63.75,-3.875
1034,-0.66650390625,0.30517578125,-0.529296875,10.5,63.75,-3.875
1036,-0.65869140625,0.30322265625,-0.55419921875,10.5,66.3125,-6.4375
1038,-0.65869140625,0.30322265625,-0.55419921875,10.5,66.3125,-6.4375
1040,-0.650634765625,0.2919921875,-0.582763671875,11.25,68.4375,-8.8125
1042,-0.650634765625,0.2919921875,-0.582763671875,11.25,68.4375,-8.8125
1044,-0.650634765625,0.2919921875,-0.582763671875,11.25,68.4375,-8.8125
1046,-0.650390625,0.28173828125,-0.60498046875,11.625,69.3125,-11.0625
1049,-0.650390625,0.28173828125,-0.60498046875,11.625,69.3125,-11.0625
1051,-0.649658203125,0.264404296875,-0.625244140625,11.1875,69.1875,-13.0625
1052,-0.649658203125,0.264404296875,-0.625244140625,11.1875,69.1875,-13.0625
1054,-0.64697265625,0.248291015625,-0.641845703125,9.3125,67.6875,-14.875
1056,-0.64697265625,0.248291015625,-0.641845703125,9.3125,67.6875,-14.875
1058,-0.643798828125,0.2353515625,-0.652587890625,7.0625,65.625,-16.375
1060,-0.643798828125,0.2353515625,-0.652587890625,7.0625,65.625,-16.375
1063,-0.646484375,0.228759765625,-0.6552734375,5.25,63.1875,-17.6875
1065,-0.646484375,0.228759765625,-0.6552734375,5.25,63.1875,-17.6875
1067,-0.646484375,0.228759765625,-0.6552734375,4.3125,60.4375,-18.75
1069,-0.643798828125,0.2119140625,-0.650634765625,4.3125,60.4375,-18.75
1071,-0.643798828125,0.2119140625,-0.650634765625,4.3125,60.4375,-18.75
1073,-0.64306640625,0.205078125,-0.649169921875,4,57.3125,-19.5
1075,-0.64306640625,0.205078125,-0.649169921875,4,57.3125,-19.5
1077,-0.647705078125,0.206787109375,-0.64892578125,4,54,-19.5625
1079,-0.647705078125,0.206787109375,-0.64892578125,4,54,-19.5625
1081,-0.640869140625,0.2021484375,-0.65185546875,5.0625,51.125,-19.4375
1083,-0.640869140625,0.2021484375,-0.65185546875,5.0625,51.125,-19.4375
1085,-0.635986328125,0.192626953125,-0.6533203125,7.0625,48.5,-19.0625
1086,-0.635986328125,0.192626953125,-0.6533203125,7.0625,48.5,-19.0625
1088,-0.635986328125,0.192626953125,-0.6533203125,7.0625,48.5,-19.0625
1090,-0.637451171875,0.18603515625,-0.646240234375,10.25,45.875,-18
1093,-0.637451171875,0.18603515625,-0.646240234375,10.25,45.875,-18
1095,-0.643310546875,0.187744140625,-0.636962890625,13.875,44.1875,-16.5625
1097,-0.643310546875,0.187744140625,-0.636962890625,13.875,44.1875,-16.5625
1099,-0.64697265625,0.191650390625,-0.626708984375,17.375,43.5625,-15.25
1100,-0.64697265625,0.191650390625,-0.626708984375,17.375,43.5625,-15.25
1102,-0.65185546875,0.193603515625,-0.618896484375,19.875,43.9375,-14.6875
1104,-0.65185546875,0.193603515625,-0.618896484375,19.875,43.9375,-14.6875
1107,-0.655029296875,0.194580078125,-0.6181640625,21.5,44.9375,-14.5
1109,-0.655029296875,0.194580078125,-0.6181640625,21.5,44.9375,-14.5
1111,-0.655029296875,0.194580078125,-0.6181640625,21.5,44.9375,-14.5
1113,-0.652099609375,0.191650390625,-0.620361328125,22.6875,45.625,-14.5625
1115,-0.652099609375,0.191650390625,-0.620361328125,22.6875,45.625,-14.5625
1117,-0.64404296875,0.188720703125,-0.623291015625,22.9375,46.5625,-14.75
1119,-0.64404296875,0.188720703125,-0.623291015625,22.9375,46.5625,-14.75
1121,-0.633544921875,0.186279296875,-0.628173828125,22.5625,47.5,-14.8125
1123,-0.633544921875,0.186279296875,-0.628173828125,22.5625,47.5,-14.8125
1125,-0.624267578125,0.181640625,-0.63623046875,22.1875,48.375,-15.1875
1127,-0.624267578125,0.181640625,-0.63623046875,22.1875,48.375,-15.1875
1129,-0.616455078125,0.172607421875,-0.642333984375,21.875,49.5,-14.875
1131,-0.616455078125,0.172607421875,-0.642333984375,21.875,49.5,-14.875
1133,-0.60791015625,0.162353515625,-0.650634765625,22.5625,51.3125,-14.375
1135,-0.60791015625,0.162353515625,-0.650634765625,22.5625,51.3125,-14.375
1138,-0.59765625,0.15576171875,-0.6533203125,23.5,53.0625,-13.6875
1140,-0.59765625,0.15576171875,-0.6533203125,23.5,53.0625,-13.6875
1141,-0.59765625,0.15576171875,-0.6533203125,23.5,53.0625,-13.6875
1143,-0.5859375,0.154052734375,-0.649658203125,23.4375,54.1875,-13.125
1145,-0.5859375,0.154052734375,-0.649658203125,23.4375,54.1875,-13.125
1147,-0.574462890625,0.151611328125,-0.653076171875,22.25,55.4375,-12.8125
1149,-0.574462890625,0.151611328125,-0.653076171875,22.25,55.4375,-12.8125
1151,-0.5673828125,0.145263671875,-0.663330078125,20.75,56.75,-12.5625
1153,-0.5673828125,0.145263671875,-0.663330078125,20.75,56.75,-12.5625
1155,-0.5673828125,0.145263671875,-0.663330078125,20.75,56.75,-12.125
1157,-0.562744140625,0.139892578125,-0.67041015625,19.25,57.5,-12.125
1160,-0.562744140625,0.139892578125,-0.67041015625,19.25,57.5,-12.125
1161,-0.5595703125,0.139404296875,-0.677490234375,17.8125,58.125,-11.5625
1163,-0.5595703125,0.139404296875,-0.677490234375,17.8125,58.125,-11.5625
1165,-0.554931640625,0.138671875,-0.686767578125,17,58.0625,-11.3125
1167,-0.554931640625,0.138671875,-0.686767578125,17,58.0625,-11.3125
1169,-0.544677734375,0.13916015625,-0.697265625,16.3125,57.625,-11.8125
1171,-0.544677734375,0.13916015625,-0.697265625,16.3125,57.625,-11.8125
1173,-0.535888671875,0.136962890625,-0.70361328125,15.375,56.375,-12.4375
1175,-0.535888671875,0.136962890625,-0.70361328125,15.375,56.375,-12.4375
1177,-0.535888671875,0.136962890625,-0.70361328125,15.375,56.375,-12.4375
1179,-0.536865234375,0.131103515625,-0.708740234375,14.4375,54.8125,-13.0625
1181,-0.536865234375,0.131103515625,-0.708740234375,14.4375,54.8125,-13.0625
1183,-0.53369140625,0.12158203125,-0.71240234375,13.5625,52.8125,-13.9375
1185,-0.53369140625,0.12158203125,-0.71240234375,13.5625,52.8125,-13.9375
1187,-0.53271484375,0.114990234375,-0.715087890625,12.375,50.5625,-14.625
1189,-0.53271484375,0.114990234375,-0.715087890625,12.375,50.5625,-14.625
1191,-0.532958984375,0.111083984375,-0.71533203125,11.3125,48.1875,-15
1193,-0.532958984375,0.111083984375,-0.71533203125,11.3125,48.1875,-15
1195,-0.532958984375,0.111083984375,-0.71533203125,11.3125,32.1875,-15
1197,-0.533203125,0.109130859375,-0.7109375,9.9375,46.25,-15
1199,-0.533203125,0.109130859375,-0.7109375,9.9375,46.25,-15
1201,-0.532958984375,0.106201171875,-0.707763671875,8.75,44.875,-14.625
1203,-0.532958984375,0.106201171875,-0.707763671875,8.75,44.875,-14.625
1205,-0.53271484375,0.102783203125,-0.69921875,8.25,43.75,-14
1207,-0.53271484375,0.102783203125,-0.69921875,8.25,43.75,-14
1209,-0.533203125,0.10205078125,-0.6904296875,7.875,43.1875,-13.375
1211,-0.533203125,0.10205078125,-0.6904296875,7.875,43.1875,-13.375
1213,-0.533203125,0.10205078125,-0.689697265625,7.625,43.375,-12.875
1215,-0.532958984375,0.09912109375,-0.689697265625,7.625,43.375,-12.875
1217,-0.532958984375,0.09912109375,-0.689697265625,7.625,43.375,-12.875
1219,-0.532958984375,0.096435546875,-0.690673828125,7.6875,44.25,-12.3125
1221,-0.532958984375,0.096435546875,-0.690673828125,7.6875,44.25,-12.3125
1223,-0.532958984375,0.0966796875,-0.695556640625,8.125,45.5625,-11.625
1225,-0.532958984375,0.0966796875,-0.695556640625,8.125,45.5625,-11.625
1227,-0.532958984375,0.098876953125,-0.700927734375,8.875,46.75,-11
1229,-0.532958984375,0.098876953125,-0.700927734375,8.875,46.75,-11
1231,-0.532958984375,0.0986328125,-0.708984375,9.4375,48,-10.875
1233,-0.532958984375,0.0986328125,-0.708984375,9.4375,48,-10.875
1235,-0.532958984375,0.0986328125,-0.708984375,9.4375,48,-10.875
1237,-0.531982421875,0.09423828125,-0.720947265625,9.5,49.125,-11
1238,-0.531982421875,0.09423828125,-0.720947265625,9.5,49.125,-11
1240,-0.525146484375,0.088134765625,-0.7412109375,9.1875,50.125,-11.4375
1242,-0.525146484375,0.088134765625,-0.7412109375,9.1875,50.125,-11.4375
1244,-0.51171875,0.0810546875,-0.758056640625,9.375,51.0625,-11.9375
1247,-0.51171875,0.0810546875,-0.758056640625,9.375,51.0625,-11.9375
1249,-0.50439453125,0.078857421875,-0.7744140625,9.6875,51.625,-11.9375
1251,-0.50439453125,0.078857421875,-0.7744140625,9.6875,51.625,-11.9375
1253,-0.50439453125,0.078857421875,-0.7744140625,9.6875,51.625,-11.9375
1254,-0.50537109375,0.083984375,-0.791015625,10.5,52,-11.6875
1256,-0.50537109375,0.083984375,-0.791015625,10.5,52,-11.6875
1259,-0.512451171875,0.09619140625,-0.80322265625,10.9375,52.4375,-11.3125
1261,-0.512451171875,0.09619140625,-0.80322265625,10.9375,52.4375,-11.3125
1263,-0.522216796875,0.102783203125,-0.806884765625,10.8125,53.1875,-11
1265,-0.522216796875,0.102783203125,-0.806884765625,10.8125,53.1875,-11
1267,-0.521728515625,0.100830078125,-0.819580078125,10.125,54.25,-10.25
1269,-0.521728515625,0.100830078125,-0.819580078125,10.125,54.25,-10.25
1271,-0.513916015625,0.09716796875,-0.83642578125,9.1875,55.25,-9.3125
1273,-0.513916015625,0.09716796875,-0.83642578125,9.1875,55.25,-9.3125
1275,-0.513916015625,0.09716796875,-0.83642578125,9.1875,55.25,-9.3125
1277,-0.50341796875,0.098876953125,-0.848876953125,8,55.75,-8.5625
1279,-0.50341796875,0.098876953125,-0.848876953125,8,55.75,-8.5625
1280,-0.501708984375,0.10791015625,-0.859375,6.5625,55.875,-8.3125
1282,-0.501708984375,0.10791015625,-0.859375,6.5625,55.875,-8.3125
1284,-0.5087890625,0.119873046875,-0.873779296875,5.4375,55.875,-8.125
1286,-0.5087890625,0.119873046875,-0.873779296875,5.4375,55.875,-8.125
1288,-0.5087890625,0.12451171875,-0.88720703125,4.8125,55.9375,-8.125
1291,-0.51513671875,0.12451171875,-0.88720703125,4.8125,55.9375,-8.125
1293,-0.51513671875,0.12353515625,-0.897705078125,4,55.75,-8.125
1295,-0.52001953125,0.12353515625,-0.897705078125,4,55.75,-8.125
1297,-0.52001953125,0.12353515625,-0.897705078125,4,55.75,-8.125
1298,-0.526123046875,0.123291015625,-0.9033203125,2.5625,55.375,-8.5
1300,-0.526123046875,0.123291015625,-0.9033203125,2.5625,55.375,-8.5
1302,-0.538330078125,0.12353515625,-0.91015625,0.625,55.1875,-9.3125
1304,-0.538330078125,0.12353515625,-0.91015625,0.625,55.1875,-9.3125
1306,-0.55908203125,0.122314453125,-0.918212890625,-1.75,55.5,-10.5625
1308,-0.55908203125,0.122314453125,-0.918212890625,-1.75,55.5,-10.5625
1310,-0.55908203125,0.122314453125,-0.918212890625,-1.75,55.5,-10.5625
1312,-0.578125,0.122802734375,-0.931884765625,-4.1875,56.0625,-12.375
1314,-0.578125,0.122802734375,-0.931884765625,-4.1875,56.0625,-12.375
1316,-0.591796875,0.118408203125,-0.9443359375,-6.625,56.625,-14.5
1318,-0.591796875,0.118408203125,-0.9443359375,-6.625,56.625,-14.5
1320,-0.60498046875,0.11328125,-0.96044921875,-9.6875,57.3125,-16.6875
1322,-0.60498046875,0.11328125,-0.96044921875,-9.6875,57.3125,-16.6875
1324,-0.619384765625,0.107421875,-0.981201171875,-12.3125,58.25,-18.125
1326,-0.619384765625,0.107421875,-0.981201171875,-12.3125,58.25,-18.125
1328,-0.619384765625,0.107421875,-0.981201171875,-12.3125,58.25,-18.125
1330,-0.629150390625,0.10009765625,-1.004150390625,-14.0625,59.6875,-18.8125
1331,-0.629150390625,0.10009765625,-1.004150390625,-14.0625,59.6875,-18.8125
1334,-0.635009765625,0.090576171875,-1.032958984375,-14.4375,61,-19.125
1336,-0.635009765625,0.090576171875,-1.032958984375,-14.4375,61,-19.125
1338,-0.638427734375,0.08251953125,-1.060546875,-13.8125,62.4375,-19.1875
1340,-0.638427734375,0.08251953125,-1.060546875,-13.8125,62.4375,-19.1875
1341,-0.6357421875,0.072265625,-1.08837890625,-12.375,63.625,-18.625
1343,-0.6357421875,0.072265625,-1.08837890625,-12.375,63.625,-18.625
1345,-0.6357421875,0.072265625,-1.08837890625,-12.375,63.625,-18.625
1347,-0.630615234375,0.06103515625,-1.114990234375,-10.8125,64.9375,-17.5
1349,-0.630615234375,0.06103515625,-1.114990234375,-10.8125,64.9375,-17.5
1351,-0.6279296875,0.052734375,-1.14111328125,-9.0625,66.25,-15.625
1353,-0.6279296875,0.052734375,-1.14111328125,-9.0625,66.25,-15.625
1355,-0.62353515625,0.049072265625,-1.172119140625,-6.875,67.625,-13.25
1357,-0.62353515625,0.049072265625,-1.172119140625,-6.875,67.625,-13.25
1359,-0.616455078125,0.050537109375,-1.20654296875,-4.25,68.6875,-10.9375
1361,-0.616455078125,0.050537109375,-1.20654296875,-4.25,68.6875,-10.9375
1363,-0.616455078125,0.050537109375,-1.20654296875,-4.25,68.6875,-10.9375
1365,-0.606689453125,0.056396484375,-1.240966796875,-1,69.5,-9.125
1367,-0.606689453125,0.056396484375,-1.240966796875,-1,69.5,-9.125
1369,-0.59765625,0.062255859375,-1.271484375,2.75,70.0625,-7.8125
1371,-0.59765625,0.062255859375,-1.271484375,2.75,70.0625,-7.8125
1373,-0.58935546875,0.06591796875,-1.302490234375,5.875,70.625,-6.25
1375,-0.58935546875,0.06591796875,-1.302490234375,5.875,70.625,-6.25
1377,-0.58447265625,0.06689453125,-1.3388671875,8.1875,70.75,-5.125
1379,-0.58447265625,0.06689453125,-1.3388671875,8.1875,70.75,-5.125
1381,-0.58447265625,0.06689453125,-1.3388671875,8.1875,70.75,-3.625
1383,-0.57763671875,0.0673828125,-1.38232421875,9.6875,70.375,-3.625
1385,-0.57763671875,0.0673828125,-1.38232421875,9.6875,70.375,-3.625
1387,-0.568603515625,0.068603515625,-1.426025390625,10.9375,69.5,-2.3125
1389,-0.568603515625,0.068603515625,-1.426025390625,10.9375,69.5,-2.3125
1391,-0.5556640625,0.073486328125,-1.46337890625,12.25,68.1875,-1
1393,-0.5556640625,0.073486328125,-1.46337890625,12.25,68.1875,-1
1395,-0.536865234375,0.081787109375,-1.49609375,13.0625,66.3125,-0.0625
1397,-0.536865234375,0.081787109375,-1.49609375,13.0625,66.3125,-0.0625
1399,-0.521484375,0.0888671875,-1.527587890625,13.25,63.75,0.6875
1401,-0.521484375,0.0888671875,-1.527587890625,13.25,63.75,0.6875
1403,-0.521484375,0.0888671875,-1.555908203125,12.875,61.0625,1.4375
1405,-0.497802734375,0.0966796875,-1.555908203125,12.875,61.0625,1.4375
1407,-0.497802734375,0.0966796875,-1.555908203125,12.875,61.0625,1.4375
1409,-0.47607421875,0.108154296875,-1.581787109375,12.375,57.9375,1.75
1411,-0.47607421875,0.108154296875,-1.581787109375,12.375,57.9375,1.75
1413,-0.456787109375,0.12158203125,-1.608154296875,11.9375,54.4375,1.875
1415,-0.456787109375,0.12158203125,-1.608154296875,11.9375,54.4375,1.875
1417,-0.435302734375,0.13330078125,-1.62939453125,11.3125,50.3125,1.5625
1419,-0.435302734375,0.13330078125,-1.62939453125,11.3125,50.3125,1.5625
1421,-0.40966796875,0.14306640625,-1.647705078125,10.25,46.1875,1.0625
1423,-0.40966796875,0.14306640625,-1.647705078125,10.25,46.1875,1.0625
1425,-0.40966796875,0.14306640625,-1.647705078125,10.25,46.1875,1.0625
1427,-0.38671875,0.151123046875,-1.666748046875,9.25,41.9375,0.4375
1429,-0.38671875,0.151123046875,-1.666748046875,9.25,41.9375,0.4375
1431,-0.36865234375,0.15673828125,-1.6923828125,8.125,37.4375,-0.25
1433,-0.36865234375,0.15673828125,-1.6923828125,8.125,37.4375,-0.25
1435,-0.349853515625,0.16259765625,-1.714111328125,7,32.8125,-1.4375
1437,-0.349853515625,0.16259765625,-1.714111328125,7,32.8125,-1.4375
1439,-0.349853515625,0.16259765625,-1.714111328125,7,32.8125,-1.4375
1441,-0.334228515625,0.175048828125,-1.73291015625,5.8125,27.8125,-3.375
1443,-0.334228515625,0.175048828125,-1.73291015625,5.8125,27.8125,-3.375
1445,-0.321044921875,0.19140625,-1.74560546875,4.1875,21.8125,-5.5
1447,-0.321044921875,0.19140625,-1.74560546875,4.1875,21.8125,-5.5
1449,-0.3076171875,0.20458984375,-1.754150390625,1.875,14.9375,-7.875
1451,-0.3076171875,0.20458984375,-1.754150390625,1.875,14.9375,-7.875
1453,-0.2958984375,0.216064453125,-1.763427734375,-0.6875,7.8125,-10.1875
1455,-0.2958984375,0.216064453125,-1.763427734375,-0.6875,7.8125,-10.1875
1457,-0.286376953125,0.225341796875,-1.77392578125,-3.0625,1,-12.125
1459,-0.286376953125,0.225341796875,-1.77392578125,-3.0625,1,-12.125
1461,-0.281005859375,0.229248046875,-1.7861328125,-5.1875,-5.875,-13.3125
1463,-0.281005859375,0.229248046875,-1.7861328125,-5.1875,-5.875,-13.3125
1465,-0.281005859375,0.229248046875,-1.7861328125,-6.9375,-13.125,-14.125
1467,-0.2744140625,0.2294921875,-1.79638671875,-6.9375,-13.125,-14.125
1469,-0.2744140625,0.2294921875,-1.79638671875,-6.9375,-13.125,-14.125
1471,-0.26611328125,0.22607421875,-1.79931640625,-7,-20.5,-14.3125
1473,-0.26611328125,0.22607421875,-1.79931640625,-7,-20.5,-14.3125
1475,-0.259033203125,0.22509765625,-1.796142578125,-5.625,-28.3125,-14
1477,-0.259033203125,0.22509765625,-1.796142578125,-5.625,-28.3125,-14
1479,-0.259033203125,0.22509765625,-1.78857421875,-3.25,-36.3125,-13.125
1481,-0.255615234375,0.225830078125,-1.78857421875,-3.25,-36.3125,-13.125
1483,-0.255615234375,0.225830078125,-1.78857421875,-3.25,-36.3125,-13.125
1484,-0.255859375,0.228515625,-1.77001953125,0.0625,-44.4375,-12.0625
1487,-0.255859375,0.228515625,-1.77001953125,0.0625,-44.4375,-12.0625
1489,-0.26171875,0.235595703125,-1.743896484375,3.5,-52.6875,-10.75
1491,-0.26171875,0.235595703125,-1.743896484375,3.5,-52.6875,-10.75
1493,-0.26318359375,0.234375,-1.723388671875,6.6875,-59.875,-9.6875
1495,-0.26318359375,0.234375,-1.723388671875,6.6875,-59.875,-9.6875
1497,-0.2626953125,0.230712890625,-1.698974609375,9.0625,-66.625,-8.8125
1499,-0.2626953125,0.230712890625,-1.698974609375,9.0625,-66.625,-8.8125
1501,-0.2626953125,0.230712890625,-1.698974609375,9.0625,-66.625,-8.8125
1502,-0.263916015625,0.226806640625,-1.669189453125,10.875,-73.75,-8.1875
1504,-0.263916015625,0.226806640625,-1.669189453125,10.875,-73.75,-8.1875
1506,-0.26220703125,0.220703125,-1.635986328125,11.875,-80.5625,-7.5625
1509,-0.26220703125,0.220703125,-1.635986328125,11.875,-80.5625,-7.5625
1511,-0.26171875,0.217529296875,-1.60205078125,12.0625,-87.0625,-7.3125
1512,-0.26171875,0.217529296875,-1.60205078125,12.0625,-87.0625,-7.3125
1514,-0.26416015625,0.216796875,-1.564697265625,11.625,-93.375,-7.5
1516,-0.26416015625,0.216796875,-1.564697265625,11.625,-93.375,-7.5
1518,-0.26416015625,0.216796875,-1.564697265625,11.625,-93.375,-7.5
1520,-0.269775390625,0.21142578125,-1.524658203125,10.6875,-99.3125,-8
1522,-0.269775390625,0.21142578125,-1.524658203125,10.6875,-99.3125,-8
1524,-0.27392578125,0.199951171875,-1.48583984375,9.875,-104.875,-8.5
1526,-0.27392578125,0.199951171875,-1.48583984375,9.875,-104.875,-8.5
1528,-0.271240234375,0.18310546875,-1.445556640625,9,-110,-8.9375
1530,-0.271240234375,0.18310546875,-1.445556640625,9,-110,-8.9375
1532,-0.26416015625,0.164306640625,-1.40380859375,8.5625,-114.5625,-9.5
1534,-0.26416015625,0.164306640625,-1.40380859375,8.5625,-114.5625,-9.5
1536,-0.26416015625,0.164306640625,-1.40380859375,8.5625,-114.5625,-9.5
1538,-0.256591796875,0.1484375,-1.3642578125,8.0625,-119.0625,-9.875
1540,-0.256591796875,0.1484375,-1.3642578125,8.0625,-119.0625,-9.875
1541,-0.252685546875,0.130615234375,-1.330078125,8.375,-122.9375,-9.875
1543,-0.252685546875,0.130615234375,-1.330078125,8.375,-122.9375,-9.875
1545,-0.250244140625,0.112060546875,-1.3056640625,9.1875,-126.125,-9.6875
1547,-0.250244140625,0.112060546875,-1.3056640625,9.1875,-126.125,-9.6875
1549,-0.250244140625,0.112060546875,-1.3056640625,9.1875,-126.125,-9.6875
1551,-0.246337890625,0.098876953125,-1.2841796875,10.3125,-128.9375,-9.625
1554,-0.246337890625,0.098876953125,-1.2841796875,10.3125,-128.9375,-9.625
1556,-0.239013671875,0.09375,-1.267578125,11.8125,-131.75,-9.375
1558,-0.239013671875,0.09375,-1.267578125,11.8125,-131.75,-9.375
1559,-0.235107421875,0.09619140625,-1.250732421875,13.0625,-134.8125,-8.8125
1561,-0.235107421875,0.09619140625,-1.250732421875,13.0625,-134.8125,-8.8125
1563,-0.235107421875,0.09765625,-1.23583984375,14.9375,-138.125,-8.3125
1565,-0.235107421875,0.09765625,-1.23583984375,14.9375,-138.125,-8.3125
1567,-0.235107421875,0.09765625,-1.23583984375,14.9375,-138.125,-7.5
1569,-0.2373046875,0.096923828125,-1.224853515625,16.8125,-141.8125,-7.5
1571,-0.2373046875,0.096923828125,-1.224853515625,16.8125,-141.8125,-7.5
1573,-0.23876953125,0.096435546875,-1.218994140625,18.5625,-145.8125,-6
1576,-0.23876953125,0.096435546875,-1.218994140625,18.5625,-145.8125,-6
1577,-0.235595703125,0.099853515625,-1.2109375,20.125,-150.75,-4.375
1579,-0.235595703125,0.099853515625,-1.2109375,20.125,-150.75,-4.375
1581,-0.2333984375,0.110595703125,-1.197509765625,21.5625,-156.25,-3
1583,-0.2333984375,0.110595703125,-1.197509765625,21.5625,-156.25,-3
1585,-0.23974609375,0.120849609375,-1.177978515625,22.0625,-162.125,-1.3125
1587,-0.23974609375,0.120849609375,-1.177978515625,22.0625,-162.125,-1.3125
1589,-0.23974609375,0.120849609375,-1.177978515625,22.0625,-162.125,-1.3125
1591,-0.246826171875,0.12158203125,-1.1591796875,21.5,-168.1875,0.3125
1593,-0.246826171875,0.12158203125,-1.1591796875,21.5,-168.1875,0.3125
1595,-0.238525390625,0.120849609375,-1.13720703125,20.0625,-174.75,2
1597,-0.238525390625,0.120849609375,-1.13720703125,20.0625,-174.75,2
1599,-0.2294921875,0.118896484375,-1.1064453125,17.8125,-181.9375,3.0625
1601,-0.2294921875,0.118896484375,-1.1064453125,17.8125,-181.9375,3.0625
1603,-0.225830078125,0.123291015625,-1.06982421875,15.75,-189.5625,3.9375
1605,-0.225830078125,0.123291015625,-1.06982421875,15.75,-189.5625,3.9375
1607,-0.225830078125,0.123291015625,-1.06982421875,15.75,-189.5625,3.9375
1609,-0.229248046875,0.126953125,-1.03173828125,14,-196.9375,4.4375
1611,-0.229248046875,0.126953125,-1.03173828125,14,-196.9375,4.4375
1613,-0.226318359375,0.124755859375,-0.994140625,11.875,-204.125,5.1875
1614,-0.226318359375,0.124755859375,-0.994140625,11.875,-204.125,5.1875
1616,-0.216796875,0.11962890625,-0.95458984375,9.1875,-210.75,5.75
1618,-0.216796875,0.11962890625,-0.95458984375,9.1875,-210.75,5.75
1621,-0.212158203125,0.110595703125,-0.90234375,6.5,-217.125,6
1623,-0.212158203125,0.110595703125,-0.90234375,6.5,-217.125,6
1625,-0.212158203125,0.110595703125,-0.90234375,4.5,-223.75,6.125
1627,-0.210205078125,0.1044921875,-0.843994140625,4.5,-223.75,6.125
1629,-0.210205078125,0.1044921875,-0.843994140625,4.5,-223.75,6.125
1631,-0.21240234375,0.09912109375,-0.798828125,2.375,-229.9375,6.375
1632,-0.21240234375,0.09912109375,-0.798828125,2.375,-229.9375,6.375
1634,-0.212158203125,0.093994140625,-0.756591796875,0.375,-235.375,6.9375
1636,-0.212158203125,0.093994140625,-0.756591796875,0.375,-235.375,6.9375
1638,-0.209228515625,0.091796875,-0.7080078125,-1.125,-240.0625,7.3125
1640,-0.209228515625,0.091796875,-0.7080078125,-1.125,-240.0625,7.3125
1642,-0.209228515625,0.091796875,-0.7080078125,-1.125,-240.0625,7.3125
1644,-0.20703125,0.09423828125,-0.652587890625,-2.125,-244.3125,7.3125
1646,-0.20703125,0.09423828125,-0.652587890625,-2.125,-244.3125,7.3125
1648,-0.2060546875,0.091552734375,-0.592529296875,-2.125,-247.625,6.8125
1650,-0.2060546875,0.091552734375,-0.592529296875,-2.125,-247.625,6.8125
1652,-0.21240234375,0.083251953125,-0.528564453125,-0.9375,-249.75,6.125
1655,-0.21240234375,0.083251953125,-0.528564453125,-0.9375,-249.75,6.125
1656,-0.223388671875,0.0859375,-0.469970703125,0.6875,-250.875,5.6875
1658,-0.223388671875,0.0859375,-0.469970703125,0.6875,-250.875,5.6875
1660,-0.223388671875,0.08984375,-0.424072265625,2,-251.0625,5.25
1662,-0.2314453125,0.08984375,-0.424072265625,2,-251.0625,5.25
1664,-0.2314453125,0.08984375,-0.424072265625,2,-251.0625,5.25
1666,-0.240234375,0.094482421875,-0.38232421875,3.1875,-250.25,4.5625
1668,-0.240234375,0.094482421875,-0.38232421875,3.1875,-250.25,4.5625
1671,-0.253662109375,0.108154296875,-0.349609375,3.8125,-248.8125,4
1672,-0.253662109375,0.108154296875,-0.349609375,3.8125,-248.8125,4
1674,-0.26416015625,0.12255859375,-0.3173828125,4.375,-246.875,3.1875
1676,-0.26416015625,0.12255859375,-0.3173828125,4.375,-246.875,3.1875
1678,-0.265625,0.1435546875,-0.286376953125,5.0625,-244.875,2.125
1680,-0.265625,0.1435546875,-0.286376953125,5.0625,-244.875,2.125
1682,-0.265625,0.1435546875,-0.286376953125,5.0625,-244.875,2.125
1684,-0.263916015625,0.16357421875,-0.26318359375,5.875,-242.5625,0.875
1686,-0.263916015625,0.16357421875,-0.26318359375,5.875,-242.5625,0.875
1688,-0.21142578125,0.20654296875,-0.2578125,7.1875,-239.375,2.9375
1690,-0.21142578125,0.20654296875,-0.2578125,7.1875,-239.375,2.9375
1691,-0.206298828125,0.26171875,-0.33251953125,15.75,-228.1875,20.875
1694,-0.206298828125,0.26171875,-0.33251953125,15.75,-228.1875,20.875
1696,-0.32080078125,0.19384765625,-0.28662109375,34.4375,-221.625,24.0625
1698,-0.32080078125,0.19384765625,-0.28662109375,34.4375,-221.625,24.0625
1700,-0.32080078125,0.19384765625,-0.28662109375,34.4375,-221.625,24.0625
1702,-0.25,0.188232421875,-0.1943359375,48,-224,16.9375
1704,-0.25,0.188232421875,-0.1943359375,48,-224,16.9375
1705,-0.2236328125,0.188720703125,-0.178466796875,50.625,-225.0625,15.6875
1707,-0.2236328125,0.188720703125,-0.178466796875,50.625,-225.0625,15.6875
1709,-0.244140625,0.14892578125,-0.177490234375,51.5,-224.125,17
1711,-0.244140625,0.14892578125,-0.177490234375,51.5,-224.125,17
1713,-0.244140625,0.14892578125,-0.177490234375,51.5,-224.125,17
1715,-0.24560546875,0.102294921875,-0.17724609375,54.3125,-223.8125,18.5
1717,-0.24560546875,0.102294921875,-0.17724609375,54.3125,-223.8125,18.5
1719,-0.23828125,0.0576171875,-0.176513671875,57.1875,-225.1875,20.125
1721,-0.23828125,0.0576171875,-0.176513671875,57.1875,-225.1875,20.125
1723,-0.23486328125,0.013427734375,-0.17333984375,58,-226.875,22.75
1725,-0.23486328125,0.013427734375,-0.17333984375,58,-226.875,22.75
1727,-0.2373046875,-0.02197265625,-0.162353515625,56.5625,-228.25,26.5625
1729,-0.2373046875,-0.02197265625,-0.162353515625,56.5625,-228.25,26.5625
1731,-0.2373046875,-0.02197265625,-0.162353515625,56.5625,-228.25,26.5625
1733,-0.242919921875,-0.03662109375,-0.142578125,52.625,-229.5,31.375
1735,-0.242919921875,-0.03662109375,-0.142578125,52.625,-229.5,31.375
1737,-0.25244140625,-0.050537109375,-0.117431640625,48.0625,-230.375,36.9375
1739,-0.25244140625,-0.050537109375,-0.117431640625,48.0625,-230.375,36.9375
1741,-0.260498046875,-0.0615234375,-0.086181640625,44.6875,-231.375,42.75
1743,-0.260498046875,-0.0615234375,-0.086181640625,44.6875,-231.375,42.75
1745,-0.261474609375,-0.073974609375,-0.03759765625,42.625,-232.1875,48.375
1747,-0.261474609375,-0.073974609375,-0.03759765625,42.625,-232.1875,48.375
1749,-0.261474609375,-0.0888671875,0.029052734375,40.3125,-233.75,53.3125
1751,-0.2685546875,-0.0888671875,0.029052734375,40.3125,-233.75,53.3125
1753,-0.2685546875,-0.0888671875,0.029052734375,40.3125,-233.75,53.3125
1755,-0.28173828125,-0.110107421875,0.0947265625,36.9375,-236.125,57.75
1757,-0.28173828125,-0.110107421875,0.0947265625,36.9375,-236.125,57.75
1758,-0.30029296875,-0.128662109375,0.14990234375,32.375,-238.0625,62.0625
1761,-0.30029296875,-0.128662109375,0.14990234375,32.375,-238.0625,62.0625
1763,-0.31494140625,-0.12744140625,0.20263671875,26.625,-238.5,66.25
1765,-0.31494140625,-0.12744140625,0.20263671875,26.625,-238.5,66.25
1767,-0.31494140625,-0.12744140625,0.2626953125,20.125,-237.75,69.4375
1769,-0.33056640625,-0.111083984375,0.2626953125,20.125,-237.75,69.4375
1771,-0.33056640625,-0.111083984375,0.2626953125,20.125,-237.75,69.4375
1772,-0.351318359375,-0.0927734375,0.320556640625,13.4375,-236.6875,71.1875
1774,-0.351318359375,-0.0927734375,0.320556640625,13.4375,-236.6875,71.1875
1776,-0.368896484375,-0.071044921875,0.3642578125,6.9375,-234.8125,72.0625
1778,-0.368896484375,-0.071044921875,0.3642578125,6.9375,-234.8125,72.0625
1780,-0.37939453125,-0.04541015625,0.39599609375,1.0625,-232.0625,71.75
1783,-0.37939453125,-0.04541015625,0.39599609375,1.0625,-232.0625,71.75
1785,-0.385009765625,-0.0126953125,0.41748046875,-3.5625,-228.25,70.8125
1787,-0.385009765625,-0.0126953125,0.41748046875,-3.5625,-228.25,70.8125
1789,-0.385009765625,-0.0126953125,0.41748046875,-3.5625,-228.25,70.8125
1790,-0.395751953125,0.02734375,0.433349609375,-6.8125,-222.6875,70.25
1792,-0.395751953125,0.02734375,0.433349609375,-6.8125,-222.6875,70.25
1794,-0.41748046875,0.064208984375,0.451904296875,-8.5,-216.0625,69.4375
1796,-0.41748046875,0.064208984375,0.451904296875,-8.5,-216.0625,69.4375
1798,-0.436279296875,0.093505859375,0.475341796875,-9.1875,-209.5625,68.1875
1800,-0.436279296875,0.093505859375,0.475341796875,-9.1875,-209.5625,68.1875
1802,-0.436279296875,0.093505859375,0.475341796875,-9.1875,-204.125,66.6875
1804,-0.44384765625,0.115478515625,0.4921875,-9.5,-204.125,66.6875
1806,-0.44384765625,0.115478515625,0.4921875,-9.5,-204.125,66.6875
1808,-0.447021484375,0.13232421875,0.50732421875,-9.5625,-200.1875,64.6875
1810,-0.447021484375,0.13232421875,0.50732421875,-9.5625,-200.1875,64.6875
1812,-0.449462890625,0.141845703125,0.526611328125,-9.1875,-197.625,62.5625
1814,-0.449462890625,0.141845703125,0.526611328125,-9.1875,-197.625,62.5625
1816,-0.4580078125,0.149169921875,0.55322265625,-8.5625,-196.4375,60.75
1818,-0.4580078125,0.149169921875,0.55322265625,-8.5625,-196.4375,60.75
1820,-0.4580078125,0.1572265625,0.581298828125,-7.625,-195.8125,58.1875
1822,-0.477294921875,0.1572265625,0.581298828125,-7.625,-195.8125,58.1875
1823,-0.477294921875,0.1572265625,0.581298828125,-7.625,-195.8125,58.1875
1826,-0.50830078125,0.163818359375,0.607666015625,-7.1875,-195.5,54.5625
1828,-0.50830078125,0.163818359375,0.607666015625,-7.1875,-195.5,54.5625
1830,-0.548828125,0.162109375,0.638427734375,-7.4375,-194.9375,50.375
1832,-0.548828125,0.162109375,0.638427734375,-7.4375,-194.9375,50.375
1834,-0.59375,0.159912109375,0.67041015625,-7.5625,-193.875,46.125
1836,-0.59375,0.159912109375,0.67041015625,-7.5625,-193.875,46.125
1837,-0.59375,0.159912109375,0.67041015625,-7.5625,-192.3125,42.1875
1839,-0.638671875,0.1591796875,0.704833984375,-7.5,-192.3125,42.1875
1841,-0.638671875,0.1591796875,0.704833984375,-7.5,-192.3125,42.1875
1843,-0.68310546875,0.158935546875,0.73974609375,-8.125,-189.5625,38.75
1845,-0.68310546875,0.158935546875,0.73974609375,-8.125,-189.5625,38.75
1847,-0.74658203125,0.165283203125,0.778076171875,-8.875,-186.5,35.4375
1849,-0.74658203125,0.165283203125,0.778076171875,-8.875,-186.5,35.4375
1851,-0.809814453125,0.177978515625,0.818359375,-9.5625,-183.4375,32.3125
1854,-0.809814453125,0.177978515625,0.818359375,-9.5625,-183.4375,32.3125
1856,-0.87158203125,0.1923828125,0.852783203125,-10.3125,-178.8125,30.125
1857,-0.87158203125,0.1923828125,0.852783203125,-10.3125,-178.8125,30.125
1859,-0.87158203125,0.1923828125,0.852783203125,-10.3125,-178.8125,30.125
1861,-0.928955078125,0.2001953125,0.89111328125,-10.0625,-172.875,29.125
1863,-0.928955078125,0.2001953125,0.89111328125,-10.0625,-172.875,29.125
1865,-0.984619140625,0.21337890625,0.93017578125,-8.1875,-165.25,29.125
1867,-0.984619140625,0.21337890625,0.93017578125,-8.1875,-165.25,29.125
1869,-1.037841796875,0.23388671875,0.963623046875,-6.625,-155.4375,29
1872,-1.037841796875,0.23388671875,0.963623046875,-6.625,-155.4375,29
1873,-1.09423828125,0.260498046875,0.97119140625,-6.6875,-143.75,29.0625
1875,-1.09423828125,0.260498046875,0.97119140625,-6.6875,-143.75,29.0625
1877,-1.15673828125,0.296142578125,0.967041015625,-8.625,-129.9375,29.6875
1879,-1.140625,0.296142578125,0.967041015625,-8.625,-129.9375,29.6875
1881,-1.140625,0.296142578125,0.967041015625,-8.625,-129.9375,29.6875
1883,-1.163330078125,0.3271484375,0.969482421875,-12.875,-115,30.125
1885,-1.163330078125,0.3271484375,0.969482421875,-12.875,-115,30.125
1887,-1.160888671875,0.353271484375,0.97021484375,-16.9375,-100.9375,29.375
1889,-1.160888671875,0.353271484375,0.97021484375,-16.9375,-100.9375,29.375
1891,-1.146240234375,0.3662109375,0.9599609375,-19.5625,-88.1875,27.4375
1893,-1.146240234375,0.3662109375,0.9599609375,-19.5625,-88.1875,27.4375
1895,-1.146240234375,0.376220703125,0.937255859375,-21.25,-77.0625,25.5
1897,-1.132568359375,0.376220703125,0.937255859375,-21.25,-77.0625,25.5
1899,-1.132568359375,0.376220703125,0.937255859375,-21.25,-77.0625,25.5
1901,-1.1259765625,0.386474609375,0.911376953125,-21.9375,-68.0625,22.6875
1903,-1.1259765625,0.386474609375,0.911376953125,-21.9375,-68.0625,22.6875
1905,-1.1240234375,0.392578125,0.8955078125,-21.6875,-61.625,18.75
1907,-1.1240234375,0.392578125,0.8955078125,-21.6875,-61.625,18.75
1909,-1.123779296875,0.3896484375,0.877685546875,-20.4375,-57.1875,14.6875
1911,-1.123779296875,0.3896484375,0.877685546875,-20.4375,-57.1875,14.6875
1912,-1.123779296875,0.3896484375,0.877685546875,-20.4375,-57.1875,14.6875
1915,-1.132080078125,0.38623046875,0.84765625,-18.375,-54.0625,11.0625
1917,-1.132080078125,0.38623046875,0.84765625,-18.375,-54.0625,11.0625
1919,-1.15576171875,0.37744140625,0.83203125,-16.9375,-51.1875,7.1875
1921,-1.15576171875,0.37744140625,0.83203125,-16.9375,-51.1875,7.1875
1923,-1.18359375,0.358154296875,0.83251953125,-16,-48.5625,2.5625
1925,-1.18359375,0.358154296875,0.83251953125,-16,-48.5625,2.5625
1927,-1.200927734375,0.32958984375,0.839111328125,-13.9375,-46.125,-2.125
1929,-1.200927734375,0.32958984375,0.839111328125,-13.9375,-46.125,-2.125
1930,-1.200927734375,0.32958984375,0.839111328125,-13.9375,-42.625,-5.0625
1932,-1.21826171875,0.303466796875,0.83935546875,-10.75,-42.625,-5.0625
1934,-1.21826171875,0.303466796875,0.83935546875,-10.75,-42.625,-5.0625
1937,-1.23388671875,0.28515625,0.838134765625,-7.4375,-37.875,-5.625
1939,-1.23388671875,0.28515625,0.838134765625,-7.4375,-37.875,-5.625
1940,-1.237548828125,0.276123046875,0.837158203125,-4.4375,-32.25,-4.875
1942,-1.237548828125,0.276123046875,0.837158203125,-4.4375,-32.25,-4.875
1944,-1.24072265625,0.269287109375,0.82373046875,-2.125,-25.9375,-3.9375
1946,-1.24072265625,0.269287109375,0.82373046875,-2.125,-25.9375,-3.9375
1948,-1.24072265625,0.269287109375,0.82373046875,-2.125,-19,-2.75
1950,-1.235595703125,0.2685546875,0.7998046875,-0.25,-19,-2.75
1952,-1.235595703125,0.2685546875,0.7998046875,-0.25,-19,-2.75
1954,-1.2265625,0.2734375,0.772705078125,1.5,-12.125,-2.0625
1956,-1.2265625,0.2734375,0.772705078125,1.5,-12.125,-2.0625
1957,-1.211669921875,0.28076171875,0.745849609375,2.4375,-5.6875,-2.875
1960,-1.211669921875,0.28076171875,0.745849609375,2.4375,-5.6875,-2.875
1962,-1.1962890625,0.292236328125,0.713623046875,2.4375,-0.3125,-4.625
1964,-1.1962890625,0.292236328125,0.713623046875,2.4375,-0.3125,-4.625
1966,-1.1962890625,0.292236328125,0.713623046875,2.4375,-0.3125,-4.625
1967,-1.184814453125,0.30615234375,0.67724609375,1.625,4.0625,-7
1969,-1.184814453125,0.30615234375,0.67724609375,1.625,4.0625,-7
1971,-1.1806640625,0.31689453125,0.6396484375,0.0625,7.625,-9.9375
1973,-1.1806640625,0.31689453125,0.6396484375,0.0625,7.625,-9.9375
1975,-1.178466796875,0.319091796875,0.598876953125,-1.1875,10.0625,-13.125
1977,-1.178466796875,0.319091796875,0.598876953125,-1.1875,10.0625,-13.125
1979,-1.178466796875,0.319091796875,0.598876953125,-1.1875,10.0625,-13.125
1981,-1.175537109375,0.31005859375,0.555419921875,-1.9375,12.5,-16.375
1983,-1.175537109375,0.31005859375,0.555419921875,-1.9375,12.5,-16.375
1985,-1.173095703125,0.2958984375,0.506591796875,-2.3125,14.8125,-18.6875
1987,-1.173095703125,0.2958984375,0.506591796875,-2.3125,14.8125,-18.6875
1989,-1.171630859375,0.282958984375,0.45947265625,-1.9375,17.25,-19.875
1991,-1.171630859375,0.282958984375,0.45947265625,-1.9375,17.25,-19.875
1993,-1.17041015625,0.267333984375,0.420166015625,-0.8125,19.1875,-20
1995,-1.17041015625,0.267333984375,0.420166015625,-0.8125,19.1875,-20
1997,-1.17041015625,0.267333984375,0.420166015625,0.3125,20.875,-19.5625
1999,-1.166259765625,0.25341796875,0.396240234375,0.3125,20.875,-19.5625
2001,-1.166259765625,0.25341796875,0.396240234375,0.3125,20.875,-19.5625
2003,-1.15869140625,0.24169921875,0.3798828125,1.0625,22.25,-18.9375
2005,-1.15869140625,0.24169921875,0.3798828125,1.0625,22.25,-18.9375
2007,-1.15380859375,0.233154296875,0.368408203125,1.75,23.3125,-17.9375
2009,-1.15380859375,0.233154296875,0.368408203125,1.75,23.3125,-17.9375
2011,-1.15185546875,0.221435546875,0.35205078125,2.5625,23.875,-16.1875
2013,-1.15185546875,0.221435546875,0.35205078125,2.5625,23.875,-16.1875
2015,-1.146484375,0.209228515625,0.3310546875,3.5,24.3125,-14.375
2017,-1.146484375,0.209228515625,0.3310546875,3.5,24.3125,-14.375
2019,-1.146484375,0.209228515625,0.3310546875,3.5,24.3125,-14.375
2021,-1.135009765625,0.202392578125,0.311767578125,4.9375,24.1875,-12.6875
2023,-1.135009765625,0.202392578125,0.311767578125,4.9375,24.1875,-12.6875
2025,-1.12255859375,0.19775390625,0.2978515625,6.3125,23.9375,-10.625
2027,-1.12255859375,0.19775390625,0.2978515625,6.3125,23.9375,-10.625
2029,-1.116943359375,0.192626953125,0.2861328125,7.125,23.875,-8.375
2031,-1.116943359375,0.192626953125,0.2861328125,7.125,23.875,-8.375
2033,-1.11328125,0.1875,0.279052734375,6.875,23.1875,-6.6875
2035,-1.11328125,0.1875,0.279052734375,6.875,23.1875,-6.6875
2036,-1.11328125,0.1875,0.279052734375,6.875,23.1875,-6.6875
2038,-1.113037109375,0.1787109375,0.2744140625,4.8125,22.6875,-6.125
2040,-1.113037109375,0.1787109375,0.2744140625,4.8125,22.6875,-6.125
2042,-1.113525390625,0.16650390625,0.265625,1,22.5625,-6.625
2044,-1.113525390625,0.16650390625,0.265625,1,22.5625,-6.625
2046,-1.1103515625,0.151611328125,0.262939453125,-3.9375,22.4375,-7.4375
2049,-1.1103515625,0.151611328125,0.262939453125,-3.9375,22.4375,-7.4375
2050,-1.10400390625,0.140380859375,0.260498046875,-9.1875,22.0625,-8.5625
2053,-1.10400390625,0.140380859375,0.260498046875,-9.1875,22.0625,-8.5625
2055,-1.09619140625,0.136962890625,0.2431640625,-13.125,21.5625,-9.0625
2057,-1.09619140625,0.136962890625,0.2431640625,-13.125,21.5625,-9.0625
2059,-1.09619140625,0.136962890625,0.2431640625,-13.125,21.5625,-9.0625
2061,-1.08984375,0.12890625,0.234619140625,-15.4375,21,-9.375
2062,-1.08984375,0.12890625,0.234619140625,-15.4375,21,-9.375
2064,-1.080078125,0.123046875,0.224365234375,-15.75,20.375,-8.4375
2066,-1.080078125,0.123046875,0.224365234375,-15.75,20.375,-8.4375
2068,-1.072021484375,0.1181640625,0.214111328125,-14.5625,19.625,-6.625
2070,-1.072021484375,0.1181640625,0.214111328125,-14.5625,19.625,-6.625
2073,-1.064697265625,0.117919921875,0.212646484375,-12.75,18.6875,-4.5625
2074,-1.064697265625,0.117919921875,0.212646484375,-12.75,18.6875,-4.5625
2076,-1.064697265625,0.117919921875,0.212646484375,-12.75,18.6875,-4.5625
2078,-1.056640625,0.125,0.21533203125,-10.5,17.4375,-2.625
2080,-1.056640625,0.125,0.21533203125,-10.5,17.4375,-2.625
2082,-1.04931640625,0.138671875,0.220703125,-8.0625,16.25,-0.5625
2084,-1.04931640625,0.138671875,0.220703125,-8.0625,16.25,-0.5625
2086,-1.044189453125,0.156494140625,0.22998046875,-5.6875,15.5625,1.1875
2088,-1.044189453125,0.156494140625,0.22998046875,-5.6875,15.5625,1.1875
2090,-1.044189453125,0.156494140625,0.22998046875,-5.6875,15.5625,1.1875
2092,-1.038818359375,0.16845703125,0.246337890625,-4.125,15.375,1.75
2094,-1.038818359375,0.16845703125,0.246337890625,-4.125,15.375,1.75
2096,-1.02880859375,0.193603515625,0.245361328125,-2.5625,15.125,0.9375
2098,-1.02880859375,0.193603515625,0.245361328125,-2.5625,15.125,0.9375
2100,-1.010986328125,0.211669921875,0.243896484375,-0.0625,15.1875,-0.0625
2102,-1.010986328125,0.211669921875,0.243896484375,-0.0625,15.1875,-0.0625
2104,-1.00244140625,0.2255859375,0.246826171875,2.125,15.6875,-1.5
2106,-1.00244140625,0.2255859375,0.246826171875,2.125,15.6875,-1.5
2107,-1.00244140625,0.2255859375,0.246826171875,2.125,15.6875,-1.5
2109,-1.001953125,0.22900390625,0.249755859375,4.3125,15.875,-3.375
2111,-1.001953125,0.22900390625,0.249755859375,4.3125,15.875,-3.375
2113,-1.006591796875,0.224853515625,0.256103515625,5.8125,15.75,-5.5625
2116,-1.006591796875,0.224853515625,0.256103515625,5.8125,15.75,-5.5625
2118,-1.009033203125,0.214111328125,0.2587890625,6,15.9375,-7.3125
2119,-1.009033203125,0.214111328125,0.2587890625,6,15.9375,-7.3125
2121,-1.013671875,0.19873046875,0.259521484375,5.5625,16.5,-8.4375
2123,-1.013671875,0.19873046875,0.259521484375,5.5625,16.5,-8.4375
2125,-1.013671875,0.19873046875,0.259521484375,5.5625,16.5,-8.4375
2127,-1.01708984375,0.18115234375,0.256103515625,4.9375,17.1875,-9.5
2129,-1.01708984375,0.18115234375,0.256103515625,4.9375,17.1875,-9.5
2131,-1.01318359375,0.162841796875,0.25146484375,4.5,17.9375,-10.25
2133,-1.01318359375,0.162841796875,0.25146484375,4.5,17.9375,-10.25
2135,-1.0078125,0.1484375,0.251708984375,4.9375,18.9375,-10.625
2137,-1.0078125,0.1484375,0.251708984375,4.9375,18.9375,-10.625
2140,-1.009033203125,0.13232421875,0.255615234375,6,20.125,-10.625
2142,-1.009033203125,0.13232421875,0.255615234375,6,20.125,-10.625
2143,-1.014404296875,0.114013671875,0.256103515625,7.375,21.4375,-10.4375
2146,-1.014404296875,0.114013671875,0.256103515625,7.375,21.4375,-10.4375
2147,-1.014404296875,0.114013671875,0.256103515625,7.375,22.875,-9.875
2149,-1.015380859375,0.093994140625,0.25341796875,8.3125,22.875,-9.875
2151,-1.015380859375,0.093994140625,0.25341796875,8.3125,22.875,-9.875
2153,-1.01806640625,0.08544921875,0.243408203125,8.625,23.9375,-8.9375
2155,-1.01806640625,0.08544921875,0.243408203125,8.625,23.9375,-8.9375
2157,-1.0263671875,0.08935546875,0.236083984375,7.6875,25.25,-7.5
2159,-1.0263671875,0.08935546875,0.236083984375,7.6875,25.25,-7.5
2162,-1.035400390625,0.09423828125,0.232177734375,5.6875,26.625,-5.375
2164,-1.035400390625,0.09423828125,0.232177734375,5.6875,26.625,-5.375
2166,-1.0390625,0.10302734375,0.2294921875,2.25,28,-3.0625
2167,-1.0390625,0.10302734375,0.2294921875,2.25,28,-3.0625
2169,-1.0390625,0.10302734375,0.2294921875,2.25,28,-3.0625
2171,-1.042724609375,0.115966796875,0.22216796875,-1.5625,29,-1.4375
2173,-1.042724609375,0.115966796875,0.22216796875,-1.5625,29,-1.4375
2175,-1.040771484375,0.124755859375,0.220947265625,-4.4375,29.6875,-1.3125
2177,-1.040771484375,0.124755859375,0.220947265625,-4.4375,29.6875,-1.3125
2179,-1.026611328125,0.13818359375,0.22412109375,-7,29.5625,-1.625
2181,-1.026611328125,0.13818359375,0.22412109375,-7,29.5625,-1.625
2183,-1.0146484375,0.1708984375,0.21826171875,-9.4375,29.4375,-1.0625
2185,-1.0146484375,0.1708984375,0.21826171875,-9.4375,29.4375,-1.0625
2187,-1.0146484375,0.1708984375,0.21826171875,-9.4375,29.4375,-1.0625
2189,-1.01611328125,0.201904296875,0.213134765625,-13.5,30.1875,-0.9375
2191,-1.01611328125,0.201904296875,0.213134765625,-13.5,30.1875,-0.9375
2193,-1.01708984375,0.224853515625,0.21923828125,-18.6875,31.4375,-2.8125
2195,-1.01708984375,0.224853515625,0.21923828125,-18.6875,31.4375,-2.8125
2197,-1.015869140625,0.241455078125,0.2236328125,-23.25,32.5625,-6.25
2199,-1.015869140625,0.241455078125,0.2236328125,-23.25,32.5625,-6.25
2201,-1.015869140625,0.241455078125,0.216796875,-25.4375,33.625,-9.875
2203,-1.011962890625,0.245849609375,0.216796875,-25.4375,33.625,-9.875
2205,-1.011962890625,0.237060546875,0.211181640625,-25.0625,34.5625,-12.5625
2207,-1.000732421875,0.237060546875,0.211181640625,-25.0625,34.5625,-12.5625
2209,-1.000732421875,0.237060546875,0.211181640625,-25.0625,34.5625,-12.5625
2211,-0.994384765625,0.225830078125,0.202392578125,-22.5,35.125,-14.125
2213,-0.994384765625,0.225830078125,0.202392578125,-22.5,35.125,-14.125
2215,-0.989501953125,0.216552734375,0.18603515625,-19.6875,35.875,-14.625
2217,-0.989501953125,0.216552734375,0.18603515625,-19.6875,35.875,-14.625
2219,-0.981201171875,0.20361328125,0.171875,-18,36.75,-14.4375
2221,-0.981201171875,0.20361328125,0.171875,-18,36.75,-14.4375
2223,-0.981201171875,0.20361328125,0.171875,-18,36.75,-14.4375
2224,-0.97119140625,0.189453125,0.166015625,-16.4375,37.1875,-14.1875
2227,-0.97119140625,0.189453125,0.166015625,-16.4375,37.1875,-14.1875
2229,-0.9677734375,0.174560546875,0.16455078125,-13.9375,36.875,-14
2231,-0.9677734375,0.174560546875,0.16455078125,-13.9375,36.875,-14
2233,-0.9658203125,0.155517578125,0.166015625,-11.0625,36,-13.75
2234,-0.9658203125,0.155517578125,0.166015625,-11.0625,36,-13.75
2236,-0.965576171875,0.141845703125,0.168701171875,-8.125,35.0625,-12.625
2238,-0.965576171875,0.141845703125,0.168701171875,-8.125,35.0625,-12.625
2240,-0.965576171875,0.141845703125,0.168701171875,-8.125,35.0625,-12.625
2242,-0.97216796875,0.13720703125,0.166748046875,-7.0625,34.4375,-11.25
2244,-0.97216796875,0.13720703125,0.166748046875,-7.0625,34.4375,-11.25
2246,-0.981201171875,0.13916015625,0.168701171875,-8.0625,34.6875,-10.4375
2248,-0.981201171875,0.13916015625,0.168701171875,-8.0625,34.6875,-10.4375
2250,-0.98583984375,0.140625,0.17529296875,-9.5625,35.0625,-10.6875
2252,-0.98583984375,0.140625,0.17529296875,-9.5625,35.0625,-10.6875
2255,-0.985107421875,0.1396484375,0.175048828125,-11,34.6875,-10.625
2257,-0.985107421875,0.1396484375,0.175048828125,-11,34.6875,-10.625
2258,-0.988525390625,0.138671875,0.17822265625,-12.5,34.5625,-9.9375
2260,-0.988525390625,0.138671875,0.17822265625,-12.5,34.5625,-9.9375
2262,-0.988525390625,0.138671875,0.17822265625,-12.5,34.5625,-9.9375
2264,-0.996337890625,0.144775390625,0.1875,-15.3125,35.125,-9.125
2266,-0.996337890625,0.144775390625,0.1875,-15.3125,35.125,-9.125
2268,-1.00439453125,0.15576171875,0.203857421875,-19.375,35.5625,-8.25
2271,-1.00439453125,0.15576171875,0.203857421875,-19.375,35.5625,-8.25
2273,-1.010986328125,0.157470703125,0.220947265625,-23.625,35.125,-7.5625
2275,-1.010986328125,0.157470703125,0.220947265625,-23.625,35.125,-7.5625
2277,-1.012451171875,0.156982421875,0.22900390625,-26.25,35.25,-6.8125
2278,-1.012451171875,0.156982421875,0.22900390625,-26.25,35.25,-6.8125
2280,-1.012451171875,0.156982421875,0.22900390625,-26.25,35.8125,-5.5
2282,-1.01513671875,0.158203125,0.23681640625,-26.0625,35.8125,-5.5
2284,-1.01513671875,0.158203125,0.23681640625,-26.0625,35.8125,-5.5
2286,-1.023193359375,0.158935546875,0.247314453125,-24,37,-3.375
2288,-1.023193359375,0.158935546875,0.247314453125,-24,37,-3.375
2291,-1.03271484375,0.16650390625,0.251708984375,-21.5,38.9375,-0.9375
2293,-1.03271484375,0.16650390625,0.251708984375,-21.5,38.9375,-0.9375
2295,-1.037353515625,0.177734375,0.253662109375,-19.625,41.8125,1.125
2297,-1.037353515625,0.177734375,0.253662109375,-19.625,41.8125,1.125
2299,-1.031494140625,0.1923828125,0.258056640625,-17.75,45.375,2.3125
2301,-1.031494140625,0.1923828125,0.258056640625,-17.75,45.375,2.3125
2303,-1.022705078125,0.204833984375,0.25830078125,-14.5625,48.75,3.375
2305,-1.022705078125,0.204833984375,0.25830078125,-14.5625,48.75,3.375
2307,-1.022705078125,0.204833984375,0.25830078125,-14.5625,48.75,3.375
2309,-1.01708984375,0.211669921875,0.25537109375,-10.75,51.8125,4.125
2311,-1.01708984375,0.211669921875,0.25537109375,-10.75,51.8125,4.125
2313,-1.013427734375,0.211181640625,0.251953125,-6.4375,54.5625,4.125
2315,-1.013427734375,0.211181640625,0.251953125,-6.4375,54.5625,4.125
2317,-1.0107421875,0.207763671875,0.24462890625,-2.125,56.375,3.5625
2319,-1.0107421875,0.207763671875,0.24462890625,-2.125,56.375,3.5625
2321,-1.00634765625,0.200439453125,0.23291015625,1.75,57.375,2.8125
2323,-1.00634765625,0.200439453125,0.23291015625,1.75,57.375,2.8125
2325,-1.00634765625,0.194580078125,0.216064453125,4.8125,58.1875,2.4375
2327,-1.0009765625,0.194580078125,0.216064453125,4.8125,58.1875,2.4375
2329,-1.0009765625,0.194580078125,0.216064453125,4.8125,58.1875,2.4375
2331,-0.998291015625,0.188720703125,0.2060546875,6.625,59.1875,2.1875
2332,-0.998291015625,0.188720703125,0.2060546875,6.625,59.1875,2.1875
2334,-0.998779296875,0.18017578125,0.200439453125,6.75,59.5625,1.75
2337,-0.998779296875,0.18017578125,0.200439453125,6.75,59.5625,1.75
2339,-0.991943359375,0.170654296875,0.196044921875,5.25,59.6875,1.375
2341,-0.991943359375,0.170654296875,0.196044921875,5.25,59.6875,1.375
2343,-0.981689453125,0.158447265625,0.193359375,2.75,59.625,0.5625
2345,-0.981689453125,0.158447265625,0.193359375,2.75,59.625,0.5625
2347,-0.981689453125,0.158447265625,0.193359375,2.75,59.625,-0.3125
2349,-0.97265625,0.147216796875,0.18896484375,0,59.6875,-0.3125
2351,-0.97265625,0.147216796875,0.18896484375,0,59.6875,-0.3125
2353,-0.96728515625,0.136962890625,0.186767578125,-3.1875,59.4375,-1.25
2354,-0.96728515625,0.136962890625,0.186767578125,-3.1875,59.4375,-1.25
2356,-0.96533203125,0.1279296875,0.18798828125,-6.625,58.75,-1.9375
2358,-0.96533203125,0.1279296875,0.18798828125,-6.625,58.75,-1.9375
2361,-0.964111328125,0.11767578125,0.19287109375,-10.4375,57.875,-2.75
2362,-0.964111328125,0.11767578125,0.19287109375,-10.4375,57.875,-2.75
2364,-0.964111328125,0.11767578125,0.19287109375,-10.4375,57.875,-3.5625
2366,-0.96337890625,0.10888671875,0.198974609375,-14.625,57.0625,-3.5625
2368,-0.96337890625,0.10888671875,0.198974609375,-14.625,57.0625,-3.5625
2370,-0.96484375,0.103515625,0.205078125,-18.625,56.5625,-4.125
2372,-0.96484375,0.103515625,0.205078125,-18.625,56.5625,-4.125
2374,-0.970703125,0.097900390625,0.211181640625,-22.5,56.5625,-4.75
2376,-0.970703125,0.097900390625,0.211181640625,-22.5,56.5625,-4.75
2378,-0.970703125,0.097900390625,0.211181640625,-25.75,57.1875,-5.5
2380,-0.97607421875,0.095947265625,0.217529296875,-25.75,57.1875,-5.5
2382,-0.97607421875,0.095947265625,0.217529296875,-25.75,57.1875,-5.5
2384,-0.98193359375,0.096923828125,0.226318359375,-29.125,58.375,-5.9375
2386,-0.98193359375,0.096923828125,0.226318359375,-29.125,58.375,-5.9375
2388,-0.989013671875,0.095947265625,0.235595703125,-32.875,59.75,-6.3125
2390,-0.989013671875,0.095947265625,0.235595703125,-32.875,59.75,-6.3125
2392,-0.9921875,0.096435546875,0.236328125,-36.1875,61.5625,-6.5625
2394,-0.9921875,0.096435546875,0.236328125,-36.1875,61.5625,-6.5625
2396,-0.9921875,0.096435546875,0.236328125,-36.1875,63.4375,-6.75
2398,-0.997314453125,0.096435546875,0.23828125,-38.375,63.4375,-6.75
2399,-0.997314453125,0.096435546875,0.23828125,-38.375,63.4375,-6.75
2401,-1.003662109375,0.084716796875,0.244140625,-39.8125,65.1875,-6.875
2403,-1.003662109375,0.084716796875,0.244140625,-39.8125,65.1875,-6.875
2406,-1.01025390625,0.078857421875,0.253662109375,-40,65.75,-6.5625
2408,-1.01025390625,0.078857421875,0.253662109375,-40,65.75,-6.5625
2410,-0.9990234375,0.094970703125,0.248046875,-40.6875,67.5625,-4.5625
2412,-0.9990234375,0.094970703125,0.248046875,-40.6875,67.5625,-4.5625
2414,-1.00146484375,0.115234375,0.2412109375,-40.9375,71.625,-1.875
2416,-1.00146484375,0.115234375,0.2412109375,-40.9375,71.625,-1.875
2417,-1.00146484375,0.115234375,0.2412109375,-40.9375,71.625,-1.875
2419,-1.004150390625,0.135009765625,0.239501953125,-39.75,75.375,0.375
2421,-1.004150390625,0.135009765625,0.239501953125,-39.75,75.375,0.375
2423,-0.99609375,0.151123046875,0.228271484375,-36.75,78.1875,2.6875
2425,-0.99609375,0.151123046875,0.228271484375,-36.75,78.1875,2.6875
2428,-0.980224609375,0.171875,0.20654296875,-31.6875,80.375,5.5625
2430,-0.980224609375,0.171875,0.20654296875,-31.6875,80.375,5.5625
2432,-0.962890625,0.1982421875,0.185546875,-24.875,82.375,8.75
2434,-0.962890625,0.1982421875,0.185546875,-24.875,82.375,8.75
2435,-0.962890625,0.1982421875,0.16845703125,-16.5625,83.0625,11.5625
2438,-0.951171875,0.22509765625,0.16845703125,-16.5625,83.0625,11.5625
2439,-0.951171875,0.22509765625,0.16845703125,-16.5625,83.0625,11.5625
2441,-0.94580078125,0.251708984375,0.151611328125,-7.6875,83.0625,13.8125
2443,-0.94580078125,0.251708984375,0.151611328125,-7.6875,83.0625,13.8125
2445,-0.9453125,0.271484375,0.1328125,1.5,82.875,15.1875
2447,-0.9453125,0.271484375,0.1328125,1.5,82.875,15.1875
2449,-0.94287109375,0.281982421875,0.115966796875,9.4375,82.6875,15.875
2451,-0.94287109375,0.281982421875,0.115966796875,9.4375,82.6875,15.875
2453,-0.93212890625,0.28271484375,0.103271484375,15.75,82.625,16.3125
2456,-0.93212890625,0.28271484375,0.103271484375,15.75,82.625,16.3125
2458,-0.918212890625,0.276611328125,0.095703125,20.125,82.8125,16.5
2460,-0.918212890625,0.276611328125,0.095703125,20.125,82.8125,16.5
2462,-0.918212890625,0.276611328125,0.095703125,20.125,82.8125,16.5
2464,-0.904296875,0.266845703125,0.083740234375,23,83.4375,16.6875
2466,-0.904296875,0.266845703125,0.083740234375,23,83.4375,16.6875
2468,-0.889892578125,0.260009765625,0.070556640625,24.375,83.75,17
2469,-0.889892578125,0.260009765625,0.070556640625,24.375,83.75,17
2471,-0.88037109375,0.25390625,0.062255859375,24.75,84.1875,17.375
2474,-0.88037109375,0.25390625,0.062255859375,24.75,84.1875,17.375
2476,-0.871337890625,0.2490234375,0.053955078125,24.5,84.875,17.3125
2478,-0.871337890625,0.2490234375,0.053955078125,24.5,84.875,17.3125
2480,-0.871337890625,0.2490234375,0.053955078125,24.5,84.875,17.3125
2482,-0.862548828125,0.24609375,0.05126953125,23.3125,85.3125,16.3125
2483,-0.862548828125,0.24609375,0.05126953125,23.3125,85.3125,16.3125
2485,-0.853759765625,0.243896484375,0.049560546875,21.4375,85.75,15.1875
2487,-0.853759765625,0.243896484375,0.049560546875,21.4375,85.75,15.1875
2489,-0.84619140625,0.243408203125,0.046630859375,19.4375,86.375,14.125
2491,-0.84619140625,0.243408203125,0.046630859375,19.4375,86.375,14.125
2493,-0.839599609375,0.242919921875,0.041748046875,17.25,87.5,12.3125
2496,-0.839599609375,0.242919921875,0.041748046875,17.25,87.5,12.3125
2498,-0.8310546875,0.245361328125,0.037353515625,15.0625,89.0625,10.3125
2500,-0.8310546875,0.245361328125,0.037353515625,15.0625,89.0625,10.3125
2501,-0.8310546875,0.245361328125,0.037353515625,15.0625,89.0625,10.3125
2503,-0.82275390625,0.25048828125,0.033447265625,12.9375,90.5625,8.3125
2505,-0.82275390625,0.25048828125,0.033447265625,12.9375,90.5625,8.3125
2507,-0.81591796875,0.24755859375,0.025390625,10.9375,92.3125,5.9375
2509,-0.81591796875,0.24755859375,0.025390625,10.9375,92.3125,5.9375
2511,-0.80859375,0.239013671875,0.016357421875,8.8125,94.125,3.375
2513,-0.80859375,0.239013671875,0.016357421875,8.8125,94.125,3.375
2515,-0.80859375,0.239013671875,0.016357421875,8.8125,94.125,3.375
2517,-0.802734375,0.232421875,0.0068359375,6.75,95.8125,0.8125
2519,-0.802734375,0.232421875,0.0068359375,6.75,95.8125,0.8125
2521,-0.79931640625,0.229248046875,-0.005615234375,5.125,97.125,-1.75
2523,-0.79931640625,0.229248046875,-0.005615234375,5.125,97.125,-1.75
2525,-0.79541015625,0.22705078125,-0.017333984375,3.625,98.0625,-4.3125
2527,-0.79541015625,0.22705078125,-0.017333984375,3.625,98.0625,-4.3125
2529,-0.79541015625,0.222412109375,-0.02880859375,1.625,98.5625,-6.75
2531,-0.79541015625,0.222412109375,-0.02880859375,1.625,98.5625,-6.75
2533,-0.79541015625,0.222412109375,-0.02880859375,1.625,98.5625,-6.75
2535,-0.79931640625,0.215087890625,-0.040283203125,-0.0625,99,-8.8125
2537,-0.79931640625,0.215087890625,-0.040283203125,-0.0625,99,-8.8125
2539,-0.80029296875,0.20654296875,-0.054443359375,-1.5625,99.625,-10.4375
2541,-0.80029296875,0.20654296875,-0.054443359375,-1.5625,99.625,-10.4375
2543,-0.8017578125,0.196533203125,-0.06640625,-2.375,100.5625,-11.625
2545,-0.8017578125,0.196533203125,-0.06640625,-2.375,100.5625,-11.625
2547,-0.8046875,0.1845703125,-0.076904296875,-2.6875,101.75,-12.375
2549,-0.8046875,0.1845703125,-0.076904296875,-2.6875,101.75,-12.375
2551,-0.8046875,0.1845703125,-0.076904296875,-2.6875,101.75,-12.75
2553,-0.80419921875,0.17724609375,-0.088623046875,-2.6875,103.1875,-12.75
2554,-0.80419921875,0.17724609375,-0.088623046875,-2.6875,103.1875,-12.75
2556,-0.805419921875,0.169677734375,-0.100341796875,-2.4375,104.8125,-12.4375
2558,-0.805419921875,0.169677734375,-0.100341796875,-2.4375,104.8125,-12.4375
2561,-0.806396484375,0.160400390625,-0.111572265625,-2.75,106,-12
2563,-0.806396484375,0.160400390625,-0.111572265625,-2.75,106,-12
2565,-0.806640625,0.15478515625,-0.12060546875,-4.125,107.375,-10.875
2566,-0.806640625,0.15478515625,-0.12060546875,-4.125,107.375,-10.875
2568,-0.806640625,0.15478515625,-0.18310546875,-6.0625,108.625,-10.125
2570,-0.808837890625,0.150390625,-0.128662109375,-6.0625,108.625,-10.125
2572,-0.808837890625,0.150390625,-0.128662109375,-6.0625,108.625,-10.125
2574,-0.81103515625,0.14306640625,-0.13671875,-8.5,109.9375,-9.75
2576,-0.81103515625,0.14306640625,-0.13671875,-8.5,109.9375,-9.75
2578,-0.811279296875,0.134521484375,-0.14404296875,-11.1875,111.1875,-9.375
2580,-0.811279296875,0.134521484375,-0.14404296875,-11.1875,111.1875,-9.375
2582,-0.812255859375,0.133056640625,-0.150390625,-14.5,112.375,-8.5625
2584,-0.812255859375,0.133056640625,-0.150390625,-14.5,112.375,-8.5625
2586,-0.812255859375,0.1376953125,-0.15771484375,-18.0625,113.5625,-7.625
2588,-0.810791015625,0.1376953125,-0.15771484375,-18.0625,113.5625,-7.625
2590,-0.810791015625,0.1376953125,-0.15771484375,-18.0625,113.5625,-7.625
2592,-0.801025390625,0.147705078125,-0.17236328125,-21.0625,114,-6.5625
2594,-0.801025390625,0.147705078125,-0.17236328125,-21.0625,114,-6.5625
2596,-0.784423828125,0.1572265625,-0.192138671875,-22.5,113.6875,-5.375
2598,-0.784423828125,0.1572265625,-0.192138671875,-22.5,113.6875,-5.375
2600,-0.771484375,0.1640625,-0.21533203125,-21.875,112.875,-4.3125
2602,-0.771484375,0.1640625,-0.21533203125,-21.875,112.875,-4.3125
2604,-0.760009765625,0.17333984375,-0.229736328125,-18.75,111.375,-2.9375
2606,-0.760009765625,0.17333984375,-0.229736328125,-18.75,111.375,-2.9375
2608,-0.760009765625,0.17333984375,-0.229736328125,-18.75,111.375,-2.9375
2610,-0.748779296875,0.186767578125,-0.234619140625,-14.1875,109.25,-1.125
2612,-0.748779296875,0.186767578125,-0.234619140625,-14.1875,109.25,-1.125
2614,-0.747802734375,0.199951171875,-0.233154296875,-8.75,106.9375,0.875
2616,-0.747802734375,0.199951171875,-0.233154296875,-8.75,106.9375,0.875
2617,-0.750732421875,0.21142578125,-0.2353515625,-2.5,104.875,2.375
2619,-0.750732421875,0.21142578125,-0.2353515625,-2.5,104.875,2.375
2621,-0.750732421875,0.21142578125,-0.2353515625,-2.5,104.875,2.375
2623,-0.753173828125,0.221435546875,-0.23388671875,4.0625,104,3.5
2626,-0.753173828125,0.221435546875,-0.23388671875,4.0625,104,3.5
2628,-0.754638671875,0.2314453125,-0.232421875,10.375,104.625,4.375
2629,-0.754638671875,0.2314453125,-0.232421875,10.375,104.625,4.375
2631,-0.755615234375,0.23974609375,-0.240234375,15.625,105.9375,4.8125
2633,-0.755615234375,0.23974609375,-0.240234375,15.625,105.9375,4.8125
2635,-0.75048828125,0.240478515625,-0.2490234375,19.5625,107.875,4.625
2637,-0.75048828125,0.240478515625,-0.2490234375,19.5625,107.875,4.625
2639,-0.75048828125,0.240478515625,-0.2490234375,19.5625,107.875,4.625
2641,-0.740478515625,0.238037109375,-0.260009765625,22.125,109.875,3.625
2643,-0.740478515625,0.238037109375,-0.260009765625,22.125,109.875,3.625
2645,-0.727783203125,0.23681640625,-0.273193359375,23.25,111.875,2.6875
2647,-0.727783203125,0.23681640625,-0.273193359375,23.25,111.875,2.6875
2649,-0.712890625,0.231201171875,-0.287841796875,23.125,113.875,1.8125
2652,-0.712890625,0.231201171875,-0.287841796875,23.125,113.875,1.8125
2654,-0.699462890625,0.22900390625,-0.303955078125,21.875,115.5625,0.5625
2656,-0.699462890625,0.22900390625,-0.303955078125,21.875,115.5625,0.5625
2658,-0.686767578125,0.231201171875,-0.32080078125,19.8125,117,-1.125
2659,-0.686767578125,0.231201171875,-0.32080078125,19.8125,117,-1.125
2661,-0.686767578125,0.231201171875,-0.32080078125,17.375,117.875,-3.75
2663,-0.673095703125,0.23583984375,-0.335205078125,17.375,117.875,-3.75
2665,-0.673095703125,0.23583984375,-0.335205078125,17.375,117.875,-3.75
2667,-0.662353515625,0.240234375,-0.345703125,14.8125,118.5625,-6.875
2670,-0.662353515625,0.240234375,-0.345703125,14.8125,118.5625,-6.875
2671,-0.65380859375,0.23974609375,-0.360107421875,12.5,118.8125,-10.3125
2673,-0.65380859375,0.23974609375,-0.360107421875,12.5,118.8125,-10.3125
2675,-0.64404296875,0.230224609375,-0.3779296875,9.8125,118.9375,-13.875
2677,-0.64404296875,0.230224609375,-0.3779296875,9.8125,118.9375,-13.875
2679,-0.63720703125,0.214599609375,-0.3955078125,6.875,118.875,-17.25
2681,-0.63720703125,0.214599609375,-0.3955078125,6.875,118.875,-17.25
2683,-0.63720703125,0.214599609375,-0.3955078125,6.875,118.875,-17.25
2685,-0.63134765625,0.192626953125,-0.412353515625,3.625,119.0625,-20.625
2687,-0.63134765625,0.192626953125,-0.412353515625,3.625,119.0625,-20.625
2689,-0.629638671875,0.1708984375,-0.428466796875,0.0625,119.1875,-23.625
2691,-0.629638671875,0.1708984375,-0.428466796875,0.0625,119.1875,-23.625
2693,-0.627685546875,0.15576171875,-0.44091796875,-3.625,119.5625,-25.8125
2695,-0.627685546875,0.15576171875,-0.44091796875,-3.625,119.5625,-25.8125
2697,-0.622802734375,0.142578125,-0.45703125,-6.8125,119.875,-27.1875
2699,-0.622802734375,0.142578125,-0.45703125,-6.8125,119.875,-27.1875
2701,-0.622802734375,0.142578125,-0.45703125,-6.8125,119.875,-27.1875
2703,-0.617431640625,0.12890625,-0.478515625,-9.3125,120.125,-28.5
2705,-0.617431640625,0.12890625,-0.478515625,-9.3125,120.125,-28.5
2707,-0.60986328125,0.119140625,-0.50146484375,-10.6875,120.125,-29.5625
2709,-0.60986328125,0.119140625,-0.50146484375,-10.6875,120.125,-29.5625
2711,-0.60595703125,0.112548828125,-0.526611328125,-11.0625,119.5,-30.5
2713,-0.60595703125,0.112548828125,-0.526611328125,-11.0625,119.5,-30.5
2715,-0.603515625,0.10693359375,-0.548583984375,-11.0625,118.375,-31.25
2717,-0.603515625,0.10693359375,-0.548583984375,-11.0625,118.375,-31.25
2719,-0.603515625,0.10693359375,-0.548583984375,-11.0625,118.375,-31.8125
2721,-0.60107421875,0.10400390625,-0.5703125,-10.9375,116.625,-31.8125
2723,-0.60107421875,0.10400390625,-0.5703125,-10.9375,116.625,-31.8125
2725,-0.595947265625,0.104736328125,-0.586181640625,-10.9375,113.375,-31.9375
2727,-0.595947265625,0.104736328125,-0.586181640625,-10.9375,113.375,-31.9375
2729,-0.591796875,0.10546875,-0.5986328125,-11.4375,108.8125,-31.875
2730,-0.591796875,0.10546875,-0.5986328125,-11.4375,108.8125,-31.875
2732,-0.591796875,0.1015625,-0.6044921875,-12.4375,103.9375,-32.0625
2735,-0.5966796875,0.1015625,-0.6044921875,-12.4375,103.9375,-32.0625
2737,-0.5966796875,0.1015625,-0.6044921875,-13.625,99.4375,-31.6875
2738,-0.60400390625,0.092529296875,-0.609130859375,-13.625,99.4375,-31.6875
2740,-0.60400390625,0.092529296875,-0.609130859375,-13.625,99.4375,-31.6875
2742,-0.610107421875,0.08056640625,-0.61083984375,-14.875,95.5625,-30.8125
2744,-0.610107421875,0.08056640625,-0.61083984375,-14.875,95.5625,-30.8125
2746,-0.614501953125,0.07666015625,-0.604736328125,-16.0625,91.75,-29.9375
2748,-0.614501953125,0.07666015625,-0.604736328125,-16.0625,91.75,-29.9375
2750,-0.620361328125,0.080322265625,-0.5908203125,-17.75,88.1875,-28.1875
2752,-0.620361328125,0.080322265625,-0.5908203125,-17.75,88.1875,-28.1875
2754,-0.620361328125,0.080322265625,-0.5908203125,-17.75,88.1875,-28.1875
2757,-0.632568359375,0.0830078125,-0.572998046875,-20.1875,85.3125,-26.5
2759,-0.632568359375,0.0830078125,-0.572998046875,-20.1875,85.3125,-26.5
2760,-0.6435546875,0.082275390625,-0.556884765625,-23,83.875,-24.8125
2762,-0.6435546875,0.082275390625,-0.556884765625,-23,83.875,-24.8125
2764,-0.64453125,0.082275390625,-0.546630859375,-25.8125,83.875,-22.6875
2766,-0.64453125,0.082275390625,-0.546630859375,-25.8125,83.875,-22.6875
2768,-0.637451171875,0.087158203125,-0.53466796875,-28,84.1875,-20.3125
2770,-0.637451171875,0.087158203125,-0.53466796875,-28,84.1875,-20.3125
2772,-0.637451171875,0.087158203125,-0.53466796875,-28,84.1875,-20.3125
2774,-0.628662109375,0.095458984375,-0.52099609375,-29,85.5,-18.6875
2776,-0.628662109375,0.095458984375,-0.52099609375,-29,85.5,-18.6875
2778,-0.6201171875,0.10302734375,-0.51025390625,-28.625,87.0625,-17.1875
2780,-0.6201171875,0.10302734375,-0.51025390625,-28.625,87.0625,-17.1875
2782,-0.6123046875,0.10888671875,-0.50390625,-26.625,89.8125,-16
2784,-0.6123046875,0.10888671875,-0.50390625,-26.625,89.8125,-16
2786,-0.60498046875,0.1171875,-0.498046875,-23.3125,93.0625,-15.3125
2787,-0.60498046875,0.1171875,-0.498046875,-23.3125,93.0625,-15.3125
2790,-0.60498046875,0.1171875,-0.498046875,-23.3125,93.0625,-15.3125
2792,-0.59619140625,0.125732421875,-0.491455078125,-19.3125,96.5,-15.25
2793,-0.59619140625,0.125732421875,-0.491455078125,-19.3125,96.5,-15.25
2795,-0.590087890625,0.131103515625,-0.491943359375,-15.1875,100.1875,-15.1875
2797,-0.590087890625,0.131103515625,-0.491943359375,-15.1875,100.1875,-15.1875
2800,-0.582763671875,0.132568359375,-0.50048828125,-10.6875,104.125,-15.0625
2802,-0.582763671875,0.132568359375,-0.50048828125,-10.6875,104.125,-15.0625
2804,-0.574462890625,0.128173828125,-0.5146484375,-5.875,108.3125,-14.6875
2806,-0.574462890625,0.128173828125,-0.5146484375,-5.875,108.3125,-14.6875
2808,-0.574462890625,0.128173828125,-0.530029296875,-1.1875,113,-14
2810,-0.564208984375,0.11962890625,-0.530029296875,-1.1875,113,-14
2811,-0.564208984375,0.11962890625,-0.530029296875,-1.1875,113,-14
2813,-0.550537109375,0.11474609375,-0.55078125,2.875,117.1875,-13.75
2815,-0.550537109375,0.11474609375,-0.55078125,2.875,117.1875,-13.75
2817,-0.54541015625,0.1083984375,-0.5791015625,6.25,120.5,-13.875
2819,-0.54541015625,0.1083984375,-0.5791015625,6.25,120.5,-13.875
2822,-0.545166015625,0.097412109375,-0.614013671875,8.625,123.25,-13.75
2823,-0.545166015625,0.097412109375,-0.614013671875,8.625,123.25,-13.75
2825,-0.5390625,0.081787109375,-0.651611328125,10.25,124.875,-13.375
2827,-0.5390625,0.081787109375,-0.651611328125,10.25,124.875,-13.375
2829,-0.5390625,0.081787109375,-0.651611328125,10.25,124.875,-13.375
2831,-0.53515625,0.068115234375,-0.6826171875,11.8125,124.8125,-12.5
2833,-0.53515625,0.068115234375,-0.6826171875,11.8125,124.8125,-12.5
2835,-0.52734375,0.06396484375,-0.70849609375,12.875,122.9375,-11.3125
2837,-0.52734375,0.06396484375,-0.70849609375,12.875,122.9375,-11.3125
2839,-0.52197265625,0.062744140625,-0.72900390625,12.25,120.9375,-9.8125
2841,-0.52197265625,0.062744140625,-0.72900390625,12.25,120.9375,-9.8125
2844,-0.529052734375,0.0634765625,-0.7490234375,10.25,119.375,-9.375
2846,-0.529052734375,0.0634765625,-0.7490234375,10.25,119.375,-9.375
2847,-0.529052734375,0.0634765625,-0.77197265625,8.5,118,-10.125
2849,-0.5322265625,0.06396484375,-0.77197265625,8.5,118,-10.125
2851,-0.5322265625,0.06396484375,-0.77197265625,8.5,118,-10.125
2853,-0.529296875,0.0546875,-0.80419921875,9,115.4375,-10
2855,-0.529296875,0.0546875,-0.80419921875,9,115.4375,-10
2857,-0.524658203125,0.047119140625,-0.813232421875,10.5,111.75,-8.9375
2859,-0.524658203125,0.047119140625,-0.813232421875,10.5,111.75,-8.9375
2861,-0.533203125,0.05078125,-0.80615234375,7.375,109.625,-8.0625
2863,-0.533203125,0.05078125,-0.80615234375,7.375,109.625,-8.0625
2865,-0.533203125,0.05078125,-0.80615234375,7.375,109.625,-8.0625
2867,-0.54638671875,0.066650390625,-0.82763671875,4.4375,107.9375,-7.875
2869,-0.54638671875,0.066650390625,-0.82763671875,4.4375,107.9375,-7.875
2871,-0.55322265625,0.07177734375,-0.854736328125,4.3125,105.875,-7.875
2873,-0.55322265625,0.07177734375,-0.854736328125,4.3125,105.875,-7.875
2875,-0.551025390625,0.076171875,-0.867431640625,4.5625,104.25,-8.0625
2877,-0.551025390625,0.076171875,-0.867431640625,4.5625,104.25,-8.0625
2879,-0.55078125,0.0791015625,-0.87451171875,4.5,103.0625,-8
2881,-0.55078125,0.0791015625,-0.87451171875,4.5,103.0625,-8
2882,-0.55078125,0.0791015625,-0.87451171875,4.5,103.0625,-8
2884,-0.55126953125,0.08154296875,-0.876953125,3.875,102,-8.125
2886,-0.55126953125,0.08154296875,-0.876953125,3.875,102,-8.125
2888,-0.552978515625,0.08203125,-0.879150390625,2.1875,101.25,-8.3125
2891,-0.552978515625,0.08203125,-0.879150390625,2.1875,101.25,-8.3125
2893,-0.556884765625,0.082763671875,-0.882568359375,-0.25,100.8125,-8.4375
2895,-0.556884765625,0.082763671875,-0.882568359375,-0.25,100.8125,-8.4375
2897,-0.559814453125,0.0849609375,-0.885009765625,-3.125,100.625,-8.125
2899,-0.559814453125,0.0849609375,-0.885009765625,-3.125,100.625,-8.125
2901,-0.559814453125,0.0849609375,-0.885009765625,-6.375,100.125,-7.375
2902,-0.553955078125,0.08837890625,-0.888671875,-6.375,100.125,-7.375
2904,-0.553955078125,0.08837890625,-0.888671875,-6.375,100.125,-7.375
2906,-0.5390625,0.09375,-0.8955078125,-9.4375,99.1875,-6.9375
2908,-0.5390625,0.09375,-0.8955078125,-9.4375,99.1875,-6.9375
2910,-0.531494140625,0.0966796875,-0.916259765625,-11,98.375,-6.3125
2912,-0.531494140625,0.0966796875,-0.916259765625,-11,98.375,-6.3125
2914,-0.52001953125,0.1015625,-0.93212890625,-10.375,97.1875,-5.5
2916,-0.52001953125,0.1015625,-0.93212890625,-10.375,97.1875,-5.5
2918,-0.52001953125,0.1015625,-0.93212890625,-10.375,97.1875,-4.5625
2920,-0.52099609375,0.1005859375,-0.897216796875,-14.25,98,-4.5625
2922,-0.52099609375,0.1005859375,-0.897216796875,-14.25,98,-4.5625
2924,-0.53173828125,0.107421875,-0.904296875,-18.375,99.25,-4
2926,-0.53173828125,0.107421875,-0.904296875,-18.375,99.25,-4
2928,-0.520263671875,0.112060546875,-0.931396484375,-18.0625,99.9375,-3.0625
2930,-0.520263671875,0.112060546875,-0.931396484375,-18.0625,99.9375,-3.0625
2932,-0.520263671875,0.112060546875,-0.931396484375,-16.25,101.0625,-1.8125
2933,-0.49755859375,0.11962890625,-0.941650390625,-16.25,101.0625,-1.8125
2935,-0.49755859375,0.11962890625,-0.941650390625,-16.25,101.0625,-1.8125
2938,-0.49072265625,0.13818359375,-0.946533203125,-14.1875,102.3125,-0.875
2940,-0.49072265625,0.13818359375,-0.946533203125,-14.1875,102.3125,-0.875
2942,-0.491943359375,0.164306640625,-0.9560546875,-12.3125,103.6875,-0.5625
2944,-0.491943359375,0.164306640625,-0.9560546875,-12.3125,103.6875,-0.5625
2945,-0.492919921875,0.191650390625,-0.96826171875,-10.9375,105.125,-0.5625
2947,-0.492919921875,0.191650390625,-0.96826171875,-10.9375,105.125,-0.5625
2949,-0.489990234375,0.212646484375,-0.98681640625,-9.75,106.5625,-1.0625
2951,-0.489990234375,0.212646484375,-0.98681640625,-9.75,106.5625,-1.0625
2953,-0.489990234375,0.212646484375,-0.98681640625,-9.75,106.5625,-1.0625
2955,-0.486083984375,0.227783203125,-1.00927734375,-7.1875,108,-2.1875
2957,-0.486083984375,0.227783203125,-1.00927734375,-7.1875,108,-2.1875
2959,-0.484619140625,0.23779296875,-1.03662109375,-3.75,109.3125,-4
2961,-0.484619140625,0.23779296875,-1.03662109375,-3.75,109.3125,-4
2963,-0.4833984375,0.243896484375,-1.0654296875,-0.3125,110.5,-6.5
2965,-0.4833984375,0.243896484375,-1.0654296875,-0.3125,110.5,-6.5
2967,-0.4833984375,0.243896484375,-1.09716796875,3.125,111.25,-8.875
2969,-0.476806640625,0.24560546875,-1.09716796875,3.125,111.25,-8.875
2971,-0.476806640625,0.24560546875,-1.09716796875,3.125,111.25,-8.875
2973,-0.469482421875,0.240966796875,-1.127197265625,6.5,111.5,-11.1875
2975,-0.469482421875,0.240966796875,-1.127197265625,6.5,111.5,-11.1875
2977,-0.461669921875,0.230224609375,-1.160400390625,9.625,111.5,-13.625
2979,-0.461669921875,0.230224609375,-1.160400390625,9.625,111.5,-13.625
2981,-0.45263671875,0.2138671875,-1.193603515625,12.8125,110.9375,-15.9375
2983,-0.45263671875,0.2138671875,-1.193603515625,12.8125,110.9375,-15.9375
2985,-0.447265625,0.1943359375,-1.224365234375,15.875,109.625,-18.375
2987,-0.447265625,0.1943359375,-1.224365234375,15.875,109.625,-18.375
2989,-0.447265625,0.1943359375,-1.224365234375,15.875,109.625,-18.375
2991,-0.4501953125,0.170654296875,-1.262451171875,17.75,107.75,-20.3125
2993,-0.4501953125,0.170654296875,-1.262451171875,17.75,107.75,-20.3125
2995,-0.45263671875,0.139892578125,-1.302001953125,18.0625,105.5625,-21.5625
2997,-0.45263671875,0.139892578125,-1.302001953125,18.0625,105.5625,-21.5625
2999,-0.450439453125,0.105712890625,-1.3427734375,17.1875,103.3125,-21.875
3001,-0.450439453125,0.105712890625,-1.3427734375,17.1875,103.3125,-21.875
3003,-0.444091796875,0.076416015625,-1.38232421875,15.875,100.625,-21.1875
3005,-0.444091796875,0.076416015625,-1.38232421875,15.875,100.625,-21.1875
3007,-0.444091796875,0.076416015625,-1.38232421875,14.0625,97.6875,-19.75
3009,-0.43603515625,0.05517578125,-1.4228515625,14.0625,97.6875,-19.75
3013,-0.430419921875,0.042724609375,-1.462158203125,11.75,94.25,-17.6875
3014,-0.430419921875,0.042724609375,-1.462158203125,11.75,94.25,-17.6875
3016,-0.427490234375,0.038818359375,-1.49658203125,8.6875,90.3125,-15.125
3018,-0.427490234375,0.038818359375,-1.49658203125,8.6875,90.3125,-15.125
3020,-0.422119140625,0.04150390625,-1.524169921875,4.75,85.9375,-12.25
3022,-0.422119140625,0.04150390625,-1.524169921875,4.75,85.9375,-12.25
3024,-0.422119140625,0.04150390625,-1.524169921875,4.75,85.9375,-12.25
3027,-0.415283203125,0.050048828125,-1.552001953125,1.0625,80.8125,-8.9375
3029,-0.415283203125,0.050048828125,-1.552001953125,1.0625,80.8125,-8.9375
3031,-0.40380859375,0.064697265625,-1.577392578125,-2,75.25,-5.4375
3033,-0.40380859375,0.064697265625,-1.577392578125,-2,75.25,-5.4375
3035,-0.393310546875,0.08154296875,-1.599853515625,-3.6875,70.0625,-1.75
3037,-0.393310546875,0.08154296875,-1.599853515625,-3.6875,70.0625,-1.75
3039,-0.375732421875,0.10400390625,-1.62109375,-3.75,64.8125,1.1875
3040,-0.375732421875,0.10400390625,-1.62109375,-3.75,64.8125,1.1875
3042,-0.375732421875,0.1201171875,-1.64208984375,-1.75,59.8125,3.8125
3045,-0.355712890625,0.1201171875,-1.64208984375,-1.75,59.8125,3.8125
3047,-0.355712890625,0.1201171875,-1.662353515625,2.1875,54.8125,6.4375
3049,-0.340087890625,0.13134765625,-1.662353515625,2.1875,54.8125,6.4375
3051,-0.340087890625,0.13134765625,-1.680419921875,7.4375,49.9375,9.1875
3054,-0.329345703125,0.139892578125,-1.680419921875,7.4375,49.9375,9.1875
3055,-0.329345703125,0.139892578125,-1.680419921875,7.4375,49.9375,9.1875
3057,-0.3154296875,0.1484375,-1.69580078125,12.875,45.5,11.5
3059,-0.3154296875,0.1484375,-1.69580078125,12.875,45.5,11.5
3061,-0.298583984375,0.16259765625,-1.70458984375,18.125,41.3125,13.3125
3063,-0.298583984375,0.16259765625,-1.70458984375,18.125,41.3125,13.3125
3065,-0.281982421875,0.17822265625,-1.711669921875,22.4375,37.5,14.6875
3067,-0.281982421875,0.17822265625,-1.711669921875,22.4375,37.5,14.6875
3069,-0.281982421875,0.17822265625,-1.722412109375,25.5,34.25,15.1875
3071,-0.2685546875,0.194580078125,-1.722412109375,25.5,34.25,15.1875
3073,-0.2685546875,0.194580078125,-1.722412109375,25.5,34.25,14.8125
3075,-0.253173828125,0.212158203125,-1.73681640625,27.5625,31.4375,14.8125
3077,-0.253173828125,0.212158203125,-1.73681640625,27.5625,31.4375,14.8125
3079,-0.2392578125,0.225830078125,-1.75390625,28.5,28.625,13.6875
3081,-0.2392578125,0.225830078125,-1.75390625,28.5,28.625,13.6875
3083,-0.229248046875,0.239501953125,-1.768798828125,28.125,25.6875,12.125
3085,-0.229248046875,0.239501953125,-1.768798828125,28.125,25.6875,12.125
3087,-0.219482421875,0.2470703125,-1.7880859375,26.6875,22.5,10.3125
3089,-0.219482421875,0.2470703125,-1.7880859375,26.6875,22.5,10.3125
3091,-0.219482421875,0.2470703125,-1.7880859375,26.6875,22.5,10.3125
3093,-0.20849609375,0.251953125,-1.808837890625,24.625,18.9375,8.375
3095,-0.20849609375,0.251953125,-1.808837890625,24.625,18.9375,8.375
3097,-0.19970703125,0.2509765625,-1.827880859375,22.5,14.5,6.5625
3099,-0.19970703125,0.2509765625,-1.827880859375,22.5,14.5,6.5625
3101,-0.19140625,0.24560546875,-1.847900390625,20.25,9.0625,4.625
3103,-0.19140625,0.24560546875,-1.847900390625,20.25,9.0625,4.625
3105,-0.18701171875,0.240478515625,-1.86474609375,17.6875,3,2.875
3107,-0.18701171875,0.240478515625,-1.86474609375,17.6875,3,2.875
3109,-0.188720703125,0.23486328125,-1.87744140625,14.875,-3.9375,1.6875
3111,-0.188720703125,0.23486328125,-1.87744140625,14.875,-3.9375,1.6875
3113,-0.188720703125,0.23486328125,-1.87744140625,14.875,-3.9375,1.6875
3115,-0.1923828125,0.231689453125,-1.88134765625,11.5625,-11.3125,0.875
3117,-0.1923828125,0.231689453125,-1.88134765625,11.5625,-11.3125,0.875
3119,-0.194091796875,0.225341796875,-1.88134765625,8.25,-19.4375,0.5
3121,-0.194091796875,0.225341796875,-1.88134765625,8.25,-19.4375,0.5
3123,-0.1923828125,0.214111328125,-1.877685546875,5.0625,-28.4375,0.25
3125,-0.1923828125,0.214111328125,-1.877685546875,5.0625,-28.4375,0.25
3127,-0.187255859375,0.20361328125,-1.8681640625,2.0625,-37.8125,0.4375
3129,-0.187255859375,0.20361328125,-1.8681640625,2.0625,-37.8125,0.4375
3131,-0.187255859375,0.20361328125,-1.8681640625,2.0625,-37.8125,0.875
3133,-0.177978515625,0.19775390625,-1.8486328125,-0.5625,-47.75,0.875
3135,-0.177978515625,0.19775390625,-1.8486328125,-0.5625,-47.75,0.875
3137,-0.171142578125,0.194091796875,-1.815185546875,-2.9375,-57.875,1.6875
3139,-0.171142578125,0.194091796875,-1.815185546875,-2.9375,-57.875,1.6875
3141,-0.166259765625,0.187744140625,-1.779052734375,-5.1875,-67.375,2.1875
3143,-0.166259765625,0.187744140625,-1.779052734375,-5.1875,-67.375,2.1875
3145,-0.159423828125,0.185302734375,-1.73876953125,-7.5625,-75.875,2.5
3147,-0.159423828125,0.185302734375,-1.73876953125,-7.5625,-75.875,2.5
3149,-0.159423828125,0.185302734375,-1.73876953125,-7.5625,-84.0625,2.5
3151,-0.15380859375,0.19091796875,-1.697021484375,-9.875,-84.0625,2.5
3152,-0.15380859375,0.19091796875,-1.697021484375,-9.875,-84.0625,2.5
3155,-0.146728515625,0.199462890625,-1.661376953125,-10.9375,-91.5625,2.1875
3157,-0.146728515625,0.199462890625,-1.661376953125,-10.9375,-91.5625,2.1875
3159,-0.1396484375,0.20556640625,-1.620361328125,-11.25,-98.3125,1.75
3161,-0.1396484375,0.20556640625,-1.620361328125,-11.25,-98.3125,1.75
3163,-0.136474609375,0.208984375,-1.576171875,-11.3125,-104.1875,1.4375
3165,-0.136474609375,0.208984375,-1.576171875,-11.3125,-104.1875,1.4375
3167,-0.140380859375,0.210205078125,-1.534912109375,-11.4375,-109.8125,1
3169,-0.140380859375,0.210205078125,-1.534912109375,-11.4375,-109.8125,1
3171,-0.140380859375,0.210205078125,-1.534912109375,-11.4375,-109.8125,1
3173,-0.147216796875,0.20947265625,-1.50341796875,-11.1875,-114.875,0.5625
3175,-0.147216796875,0.20947265625,-1.50341796875,-11.1875,-114.875,0.5625
3177,-0.151611328125,0.2099609375,-1.475341796875,-10.375,-119.8125,0
3179,-0.151611328125,0.2099609375,-1.475341796875,-10.375,-119.8125,0
3181,-0.153076171875,0.20751953125,-1.45068359375,-9.125,-124.75,-0.5625
3183,-0.153076171875,0.20751953125,-1.45068359375,-9.125,-124.75,-0.5625
3185,-0.156494140625,0.2109375,-1.428955078125,-7.9375,-129.6875,-1.3125
3187,-0.156494140625,0.2109375,-1.428955078125,-7.9375,-129.6875,-1.3125
3189,-0.1640625,0.21240234375,-1.411865234375,-6.5625,-134.5,-1.625
3191,-0.1640625,0.21240234375,-1.411865234375,-6.5625,-134.5,-1.625
3193,-0.1640625,0.21240234375,-1.411865234375,-4.4375,-139.25,-1.6875
3195,-0.172607421875,0.21044921875,-1.396728515625,-4.4375,-139.25,-1.6875
3197,-0.172607421875,0.21044921875,-1.396728515625,-4.4375,-139.25,-1.6875
3199,-0.179443359375,0.204833984375,-1.380126953125,-1.9375,-144.5,-1.3125
3201,-0.179443359375,0.204833984375,-1.380126953125,-1.9375,-144.5,-1.3125
3203,-0.1845703125,0.19482421875,-1.36181640625,0,-150.3125,-0.4375
3205,-0.1845703125,0.19482421875,-1.36181640625,0,-150.3125,-0.4375
3208,-0.191162109375,0.183349609375,-1.33935546875,2.125,-156.4375,0.9375
3210,-0.191162109375,0.183349609375,-1.33935546875,2.125,-156.4375,0.9375
3212,-0.197265625,0.17236328125,-1.315673828125,4.4375,-162.6875,2.8125
3214,-0.197265625,0.17236328125,-1.315673828125,4.4375,-162.6875,2.8125
3215,-0.20166015625,0.160888671875,-1.293212890625,7.25,-168.75,5.25
3218,-0.20166015625,0.160888671875,-1.293212890625,7.25,-168.75,5.25
3220,-0.20751953125,0.149658203125,-1.26953125,10.5,-174.75,8
3222,-0.20751953125,0.149658203125,-1.26953125,10.5,-174.75,8
3224,-0.20751953125,0.149658203125,-1.26953125,10.5,-174.75,8
3226,-0.212158203125,0.14453125,-1.244384765625,13.875,-180.8125,10.9375
3228,-0.212158203125,0.14453125,-1.244384765625,13.875,-180.8125,10.9375
3230,-0.213623046875,0.143310546875,-1.218017578125,17.25,-187.1875,13.9375
3232,-0.213623046875,0.143310546875,-1.218017578125,17.25,-187.1875,13.9375
3234,-0.217041015625,0.14306640625,-1.1904296875,20.3125,-193.5625,16.75
3236,-0.217041015625,0.14306640625,-1.1904296875,20.3125,-193.5625,16.75
3238,-0.221435546875,0.1435546875,-1.16259765625,22.875,-199.625,19.375
3239,-0.221435546875,0.1435546875,-1.16259765625,22.875,-199.625,19.375
3241,-0.221435546875,0.1435546875,-1.16259765625,22.875,-199.625,19.375
3244,-0.222412109375,0.147705078125,-1.13623046875,25.4375,-205.75,21.8125
3246,-0.222412109375,0.147705078125,-1.13623046875,25.4375,-205.75,21.8125
3248,-0.223388671875,0.149658203125,-1.10693359375,28.125,-212,23.9375
3250,-0.223388671875,0.149658203125,-1.10693359375,28.125,-212,23.9375
3252,-0.2255859375,0.147705078125,-1.075927734375,30.375,-218.1875,25.8125
3254,-0.2255859375,0.147705078125,-1.075927734375,30.375,-218.1875,25.8125
3256,-0.22412109375,0.147216796875,-1.042724609375,31.6875,-224.25,27.25
3258,-0.22412109375,0.147216796875,-1.042724609375,31.6875,-224.25,27.25
3260,-0.223876953125,0.1494140625,-1.00830078125,31.875,-230.375,28.375
3261,-0.223876953125,0.1494140625,-1.00830078125,31.875,-230.375,28.375
3264,-0.223876953125,0.1494140625,-1.00830078125,31.875,-230.375,28.375
3266,-0.2255859375,0.153564453125,-0.969970703125,30.875,-236.125,28.875
3267,-0.2255859375,0.153564453125,-0.969970703125,30.875,-236.125,28.875
3270,-0.226806640625,0.15673828125,-0.932861328125,28.8125,-241.5625,29.375
3272,-0.226806640625,0.15673828125,-0.932861328125,28.8125,-241.5625,29.375
3274,-0.22314453125,0.156494140625,-0.8994140625,26.4375,-246.25,29.6875
3276,-0.22314453125,0.156494140625,-0.8994140625,26.4375,-246.25,29.6875
3278,-0.216064453125,0.15625,-0.862548828125,24.5625,-250.6875,29.5
3280,-0.216064453125,0.15625,-0.862548828125,24.5625,-250.6875,29.5
3282,-0.216064453125,0.1533203125,-0.82177734375,22.5625,-254.875,28.6875
3283,-0.21630859375,0.1533203125,-0.82177734375,22.5625,-254.875,28.6875
3285,-0.21630859375,0.1533203125,-0.82177734375,22.5625,-254.875,28.6875
3287,-0.2158203125,0.14990234375,-0.782470703125,20.25,-259.0625,27.6875
3289,-0.2158203125,0.14990234375,-0.782470703125,20.25,-259.0625,27.6875
3292,-0.21923828125,0.147705078125,-0.738037109375,17.6875,-262.5,26.5625
3294,-0.21923828125,0.147705078125,-0.738037109375,17.6875,-262.5,26.5625
3296,-0.224365234375,0.14892578125,-0.691650390625,14.625,-265.0625,25.125
3298,-0.224365234375,0.14892578125,-0.691650390625,14.625,-265.0625,25.125
3300,-0.227294921875,0.149658203125,-0.646484375,11.75,-266.9375,23.5
3302,-0.227294921875,0.149658203125,-0.646484375,11.75,-266.9375,23.5
3303,-0.227294921875,0.149658203125,-0.646484375,11.75,-266.9375,23.5
3305,-0.230712890625,0.149169921875,-0.60693359375,9.3125,-268.25,21.6875
3307,-0.230712890625,0.149169921875,-0.60693359375,9.3125,-268.25,21.6875
3309,-0.239013671875,0.144775390625,-0.57177734375,7.125,-269.25,19.75
3311,-0.239013671875,0.144775390625,-0.57177734375,7.125,-269.25,19.75
3314,-0.25,0.143798828125,-0.537109375,4.6875,-269.8125,18.1875
3315,-0.25,0.143798828125,-0.537109375,4.6875,-269.8125,18.1875
3317,-0.258056640625,0.142822265625,-0.5087890625,2,-270.1875,17.3125
3319,-0.258056640625,0.142822265625,-0.5087890625,2,-270.1875,17.3125
3321,-0.258056640625,0.142822265625,-0.5087890625,2,-270.1875,17.4375
3323,-0.267333984375,0.140625,-0.484130859375,-1.375,-270.25,17.4375
3325,-0.267333984375,0.140625,-0.484130859375,-1.375,-270.25,17.4375
3327,-0.276123046875,0.134521484375,-0.458740234375,-5.5625,-270.375,18.1875
3329,-0.276123046875,0.134521484375,-0.458740234375,-5.5625,-270.375,18.1875
3331,-0.279052734375,0.124755859375,-0.43896484375,-10.0625,-270.625,19.3125
3333,-0.279052734375,0.124755859375,-0.43896484375,-10.0625,-270.625,19.3125
3336,-0.271240234375,0.112548828125,-0.42724609375,-14.4375,-271.375,20.4375
3338,-0.271240234375,0.112548828125,-0.42724609375,-14.4375,-271.375,20.4375
3339,-0.251708984375,0.100341796875,-0.41015625,-18.375,-272.75,21.625
3341,-0.251708984375,0.100341796875,-0.41015625,-18.375,-272.75,21.625
3343,-0.251708984375,0.100341796875,-0.41015625,-18.375,-272.75,21.625
3345,-0.22900390625,0.093505859375,-0.3876953125,-21.8125,-274.1875,22.375
3347,-0.22900390625,0.093505859375,-0.3876953125,-21.8125,-274.1875,22.375
3349,-0.2099609375,0.089599609375,-0.361572265625,-24.9375,-276,22.875
3351,-0.2099609375,0.089599609375,-0.361572265625,-24.9375,-276,22.875
3353,-0.19677734375,0.082763671875,-0.330322265625,-27.9375,-278.375,22.6875
3355,-0.19677734375,0.082763671875,-0.330322265625,-27.9375,-278.375,22.6875
3357,-0.184326171875,0.072998046875,-0.29736328125,-31.0625,-280.9375,21.5
3359,-0.184326171875,0.072998046875,-0.29736328125,-31.0625,-280.9375,21.5
3361,-0.184326171875,0.072998046875,-0.29736328125,-47.0625,-283.25,20
3363,-0.17236328125,0.06396484375,-0.267822265625,-34.8125,-283.25,20
3365,-0.17236328125,0.06396484375,-0.267822265625,-34.8125,-283.25,20
3367,-0.1591796875,0.04931640625,-0.237060546875,-39.1875,-285.375,18
3369,-0.1591796875,0.04931640625,-0.237060546875,-39.1875,-285.375,18
3371,-0.149169921875,0.028076171875,-0.20703125,-44.0625,-287.4375,15.875
3373,-0.149169921875,0.028076171875,-0.20703125,-44.0625,-287.4375,15.875
3375,-0.1474609375,0.007568359375,-0.177001953125,-48.8125,-289.3125,14.1875
3377,-0.1474609375,0.007568359375,-0.177001953125,-48.8125,-289.3125,14.1875
3379,-0.1513671875,-0.005615234375,-0.1435546875,-52.5,-290.625,13.75
3381,-0.1513671875,-0.005615234375,-0.1435546875,-52.5,-290.625,13.75
3383,-0.1513671875,-0.005615234375,-0.1435546875,-52.5,-290.625,13.75
3385,-0.138671875,0.0009765625,-0.119873046875,-54.3125,-290.75,16.25
3387,-0.138671875,0.0009765625,-0.119873046875,-54.3125,-290.75,16.25
3389,-0.129638671875,0.0244140625,-0.17626953125,-49.25,-279.75,30.8125
3391,-0.129638671875,0.0244140625,-0.17626953125,-49.25,-279.75,30.8125
3393,-0.18115234375,-0.0126953125,-0.112060546875,-37.6875,-269.9375,38.25
3395,-0.18115234375,-0.0126953125,-0.112060546875,-37.6875,-269.9375,38.25
3397,-0.132080078125,-0.03173828125,0.047119140625,-30.375,-272.75,37.0625
3399,-0.132080078125,-0.03173828125,0.047119140625,-30.375,-272.75,37.0625
3401,-0.132080078125,-0.03173828125,0.1337890625,-29,-275.375,35.375
3403,-0.111572265625,-0.02783203125,0.1337890625,-29,-275.375,35.375
3405,-0.111572265625,-0.02783203125,0.1337890625,-29,-275.375,35.375
3408,-0.132568359375,-0.024658203125,0.206298828125,-31.5625,-276.25,33.5
3411,-0.146728515625,-0.019287109375,0.277587890625,-34.6875,-277.125,32.25
3413,-0.146728515625,-0.019287109375,0.277587890625,-34.6875,-277.125,32.25
3415,-0.1513671875,-0.01220703125,0.332763671875,-36.9375,-277.4375,30.1875
3417,-0.1513671875,-0.01220703125,0.332763671875,-36.9375,-277.4375,30.1875
3419,-0.1572265625,-0.002197265625,0.377685546875,-39.25,-277.25,27.625
3421,-0.1572265625,-0.002197265625,0.377685546875,-39.25,-277.25,27.625
3423,-0.1572265625,-0.002197265625,0.377685546875,-39.25,-277.25,27.625
3425,-0.164306640625,0.011962890625,0.414794921875,-42.0625,-276.1875,25.5625
3427,-0.164306640625,0.011962890625,0.414794921875,-42.0625,-276.1875,25.5625
3430,-0.176513671875,0.02734375,0.447509765625,-46.0625,-273.875,24
3432,-0.176513671875,0.02734375,0.447509765625,-46.0625,-273.875,24
3434,-0.190185546875,0.0380859375,0.482421875,-50.875,-271.125,22
3436,-0.190185546875,0.0380859375,0.482421875,-50.875,-271.125,22
3438,-0.20458984375,0.046875,0.526123046875,-55.375,-268.9375,19.6875
3440,-0.20458984375,0.046875,0.526123046875,-55.375,-268.9375,19.6875
3443,-0.218505859375,0.0537109375,0.581298828125,-58,-266.875,17.0625
3445,-0.218505859375,0.0537109375,0.581298828125,-58,-266.875,17.0625
3447,-0.232666015625,0.059326171875,0.627685546875,-57.625,-264.9375,14.875
3450,-0.232666015625,0.059326171875,0.627685546875,-57.625,-264.9375,14.875
3452,-0.249267578125,0.066162109375,0.663330078125,-54.6875,-263.125,13.75
3454,-0.249267578125,0.066162109375,0.663330078125,-54.6875,-263.125,13.75
3455,-0.274169921875,0.069091796875,0.697509765625,-50.125,-261.0625,13.125
3458,-0.274169921875,0.069091796875,0.697509765625,-50.125,-261.0625,13.125
3460,-0.301513671875,0.072265625,0.74462890625,-43.125,-258.625,12.6875
3462,-0.301513671875,0.072265625,0.74462890625,-43.125,-258.625,12.6875
3464,-0.328857421875,0.089599609375,0.814453125,-34.0625,-255.625,12.625
3466,-0.328857421875,0.089599609375,0.814453125,-34.0625,-255.625,12.625
3468,-0.364013671875,0.11474609375,0.88720703125,-25.4375,-252,12.625
3470,-0.364013671875,0.11474609375,0.88720703125,-25.4375,-252,12.625
3472,-0.41552734375,0.146240234375,0.9384765625,-19.75,-246.8125,12.4375
3474,-0.41552734375,0.146240234375,0.9384765625,-19.75,-246.8125,12.4375
3476,-0.41552734375,0.146240234375,0.9384765625,-19.75,-246.8125,12.4375
3478,-0.475830078125,0.17236328125,0.96923828125,-17.625,-239.375,11.4375
3480,-0.475830078125,0.17236328125,0.96923828125,-17.625,-239.375,11.4375
3482,-0.5263671875,0.18505859375,0.988037109375,-18.25,-229.375,9.5625
3484,-0.5263671875,0.18505859375,0.988037109375,-18.25,-229.375,9.5625
3486,-0.56787109375,0.1962890625,0.998779296875,-20.8125,-218,7.125
3488,-0.56787109375,0.1962890625,0.998779296875,-20.8125,-218,7.125
3489,-0.56787109375,0.1962890625,0.998779296875,-20.8125,-218,7.125
3491,-0.60986328125,0.203125,0.998291015625,-25.125,-206.375,4.6875
3494,-0.60986328125,0.203125,0.998779296875,-29.875,-195.1875,2.4375
3496,-0.650634765625,0.203369140625,0.998779296875,-29.875,-195.1875,2.4375
3498,-0.650634765625,0.203369140625,0.998779296875,-29.875,-195.1875,2.4375
3500,-0.689208984375,0.20654296875,1.007080078125,-33.625,-186,0.375
3502,-0.689208984375,0.20654296875,1.007080078125,-33.625,-186,0.375
3504,-0.72705078125,0.208740234375,1.0234375,-35.5625,-178.9375,-1.625
3506,-0.72705078125,0.208740234375,1.0234375,-35.5625,-178.9375,-1.625
3508,-0.766357421875,0.203369140625,1.0419921875,-35.5,-172.9375,-3.125
3510,-0.766357421875,0.203369140625,1.0419921875,-35.5,-172.9375,-3.125
3512,-0.766357421875,0.203369140625,1.0419921875,-35.5,-172.9375,-3.125
3513,-0.80322265625,0.195556640625,1.06298828125,-34.0625,-166.8125,-3.8125
3516,-0.80322265625,0.195556640625,1.06298828125,-34.0625,-166.8125,-3.8125
3518,-0.834716796875,0.1884765625,1.09228515625,-30.75,-160.4375,-3.5
3520,-0.834716796875,0.1884765625,1.09228515625,-30.75,-160.4375,-3.5
3522,-0.8681640625,0.181640625,1.121826171875,-25.875,-153.625,-2.5
3523,-0.8681640625,0.181640625,1.121826171875,-25.875,-153.625,-2.5
3525,-0.906005859375,0.172119140625,1.146484375,-20,-146.375,-0.75
3527,-0.906005859375,0.172119140625,1.146484375,-20,-146.375,-0.75
3529,-0.906005859375,0.172119140625,1.146484375,-20,-146.375,-0.75
3531,-0.943603515625,0.165771484375,1.164794921875,-13.6875,-138.625,1.0625
3533,-0.943603515625,0.165771484375,1.164794921875,-13.6875,-138.625,1.0625
3535,-0.97900390625,0.162841796875,1.178466796875,-7.5625,-129.8125,3
3538,-0.97900390625,0.162841796875,1.178466796875,-7.5625,-129.8125,3
3540,-1.0126953125,0.164794921875,1.180419921875,-1.6875,-119.875,5.1875
3541,-1.0126953125,0.164794921875,1.180419921875,-1.6875,-119.875,5.1875
3543,-1.04345703125,0.16650390625,1.17236328125,3.625,-109.625,7.4375
3545,-1.04345703125,0.16650390625,1.17236328125,3.625,-109.625,7.4375
3547,-1.04345703125,0.16650390625,1.17236328125,3.625,-99.25,8.875
3549,-1.072021484375,0.168701171875,1.160400390625,7.875,-99.25,8.875
3551,-1.072021484375,0.168701171875,1.160400390625,7.875,-99.25,8.875
3553,-1.09814453125,0.171875,1.144287109375,10.9375,-89.0625,9.5
3555,-1.09814453125,0.171875,1.144287109375,10.9375,-89.0625,9.5
3557,-1.1181640625,0.1748046875,1.12353515625,13.0625,-79.125,9.75
3560,-1.1181640625,0.1748046875,1.12353515625,13.0625,-79.125,9.75
3562,-1.128173828125,0.177978515625,1.09814453125,14.5625,-69.6875,9.625
3563,-1.128173828125,0.177978515625,1.09814453125,14.5625,-69.6875,9.625
3565,-1.13232421875,0.18701171875,1.07373046875,15.5,-60.625,9.625
3567,-1.13232421875,0.18701171875,1.07373046875,15.5,-60.625,9.625
3569,-1.13232421875,0.18701171875,1.07373046875,15.5,-60.625,9.625
3571,-1.139404296875,0.19775390625,1.044677734375,15.375,-52.0625,9.5
3573,-1.139404296875,0.19775390625,1.044677734375,15.375,-52.0625,9.5
3575,-1.13916015625,0.204345703125,1.012451171875,14.25,-44.0625,9.75
3577,-1.13916015625,0.204345703125,1.012451171875,14.25,-44.0625,9.75
3579,-1.12158203125,0.2109375,0.98486328125,13.5,-36.625,9.5625
3581,-1.12158203125,0.2109375,0.98486328125,13.5,-36.625,9.5625
3584,-1.09814453125,0.21484375,0.962890625,14,-29.8125,9.0625
3587,-1.09814453125,0.21484375,0.9404296875,15.375,-23.875,8.625
3589,-1.084228515625,0.222900390625,0.9404296875,15.375,-23.875,8.625
3591,-1.084228515625,0.222900390625,0.9404296875,15.375,-23.875,8.625
3593,-1.078369140625,0.237060546875,0.907958984375,17.375,-18.375,7.8125
3595,-1.078369140625,0.237060546875,0.907958984375,17.375,-18.375,7.8125
3597,-1.073974609375,0.249755859375,0.87451171875,19.3125,-12.9375,6.6875
3599,-1.073974609375,0.249755859375,0.87451171875,19.3125,-12.9375,6.6875
3601,-1.073486328125,0.253173828125,0.842041015625,20.625,-8.3125,4.9375
3604,-1.073486328125,0.253173828125,0.842041015625,20.625,-8.3125,4.9375
3606,-1.07275390625,0.24853515625,0.802978515625,21.6875,-4.0625,2.5625
3608,-1.07275390625,0.24853515625,0.802978515625,21.6875,-4.0625,2.5625
3610,-1.078369140625,0.23291015625,0.752197265625,23.3125,-0.375,-0.5625
3612,-1.078369140625,0.23291015625,0.752197265625,23.3125,-0.375,-0.5625
3614,-1.078369140625,0.23291015625,0.752197265625,23.3125,-0.375,-0.5625
3616,-1.08642578125,0.205810546875,0.697021484375,25.0625,2.8125,-3.3125
3618,-1.08642578125,0.205810546875,0.697021484375,25.0625,2.8125,-3.3125
3620,-1.091796875,0.17578125,0.642333984375,26.3125,5.625,-4.75
3622,-1.091796875,0.17578125,0.642333984375,26.3125,5.625,-4.75
3623,-1.09375,0.146728515625,0.5966796875,27.3125,7.6875,-5
3625,-1.09375,0.146728515625,0.5966796875,27.3125,7.6875,-5
3628,-1.093017578125,0.1240234375,0.56005859375,26.6875,8.5,-4.3125
3630,-1.093017578125,0.1240234375,0.56005859375,26.6875,8.5,-4.3125
3632,-1.090576171875,0.11181640625,0.529052734375,24.6875,8.25,-2.75
3634,-1.090576171875,0.11181640625,0.529052734375,24.6875,8.25,-2.75
3636,-1.090576171875,0.11181640625,0.529052734375,24.6875,8.25,-2.75
3638,-1.0859375,0.108642578125,0.505126953125,21.4375,7.625,-0.625
3640,-1.0859375,0.108642578125,0.505126953125,21.4375,7.625,-0.625
3642,-1.0810546875,0.11572265625,0.48974609375,17.5625,6.5625,1.4375
3644,-1.0810546875,0.11572265625,0.48974609375,17.5625,6.5625,1.4375
3646,-1.07275390625,0.133056640625,0.481201171875,13.25,5.625,3.3125
3648,-1.07275390625,0.133056640625,0.481201171875,13.25,5.625,3.3125
3650,-1.059814453125,0.157958984375,0.478515625,8.3125,4.875,5.125
3652,-1.059814453125,0.157958984375,0.478515625,8.3125,4.875,5.125
3654,-1.0419921875,0.1845703125,0.482421875,3.25,4.25,6.25
3656,-1.0419921875,0.1845703125,0.482421875,3.25,4.25,6.25
3658,-1.0234375,0.2109375,0.488525390625,-0.8125,3.75,6.3125
3660,-1.0234375,0.2109375,0.488525390625,-0.8125,3.75,6.3125
3662,-1.0234375,0.2109375,0.488525390625,-0.8125,3.75,6.3125
3664,-1.009033203125,0.235107421875,0.4931640625,-3.625,3.4375,5.0625
3666,-1.009033203125,0.235107421875,0.4931640625,-3.625,3.4375,5.0625
3668,-1.00537109375,0.255859375,0.4951171875,-4.8125,3.25,2.875
3670,-1.00537109375,0.255859375,0.4951171875,-4.8125,3.25,2.875
3672,-1.007080078125,0.264404296875,0.49365234375,-4.4375,3.8125,-0.4375
3674,-1.007080078125,0.264404296875,0.49365234375,-4.4375,3.8125,-0.4375
3676,-1.006103515625,0.262939453125,0.48681640625,-2.75,4.875,-3.9375
3678,-1.006103515625,0.262939453125,0.48681640625,-2.75,4.875,-3.9375
3680,-1.006103515625,0.262939453125,0.48681640625,-0.4375,5.9375,-7.125
3682,-1.009033203125,0.255859375,0.474609375,-0.4375,5.9375,-7.125
3684,-1.009033203125,0.255859375,0.474609375,-0.4375,5.9375,-7.125
3686,-1.015625,0.23779296875,0.456787109375,2.5,7.0625,-9.6875
3688,-1.015625,0.23779296875,0.456787109375,2.5,7.0625,-9.6875
3692,-1.0224609375,0.21630859375,0.435791015625,5.8125,8.4375,-11.25
3694,-1.027099609375,0.19091796875,0.41162109375,8.6875,9.875,-11.75
3696,-1.027099609375,0.19091796875,0.41162109375,8.6875,9.875,-11.75
3698,-1.02685546875,0.1708984375,0.38671875,10.8125,10.9375,-11.5
3700,-1.02685546875,0.1708984375,0.38671875,10.8125,10.9375,-11.5
3702,-1.02685546875,0.1708984375,0.38671875,12.125,11.625,-10.875
3704,-1.02490234375,0.157470703125,0.364990234375,12.125,11.625,-10.875
3707,-1.02490234375,0.157470703125,0.364990234375,12.125,11.625,-10.875
3708,-1.017822265625,0.149169921875,0.347900390625,12.8125,11.9375,-9.9375
3711,-1.017822265625,0.149169921875,0.347900390625,12.8125,11.9375,-9.9375
3713,-1.006591796875,0.147705078125,0.33251953125,12.9375,11.375,-9.1875
3715,-1.006591796875,0.147705078125,0.33251953125,12.9375,11.375,-9.1875
3717,-0.997314453125,0.15087890625,0.322021484375,12.3125,10.1875,-8.25
3719,-0.997314453125,0.15087890625,0.322021484375,12.3125,10.1875,-8.25
3721,-0.9892578125,0.155517578125,0.31494140625,11,8.375,-7.3125
3724,-0.9892578125,0.155517578125,0.31494140625,11,8.375,-7.3125
3726,-0.98291015625,0.1572265625,0.3125,9.25,6.4375,-6.3125
3727,-0.98291015625,0.1572265625,0.3125,9.25,6.4375,-6.3125
3729,-0.975341796875,0.1533203125,0.3154296875,7.0625,4.5625,-5.625
3731,-0.975341796875,0.1533203125,0.3154296875,7.0625,4.5625,-5.625
3733,-0.975341796875,0.1533203125,0.3154296875,7.0625,4.5625,-5.625
3735,-0.96875,0.155029296875,0.32275390625,4.4375,2.8125,-5.125
3737,-0.96875,0.155029296875,0.32275390625,4.4375,2.8125,-5.125
3739,-0.9619140625,0.15625,0.332275390625,1.625,1.625,-4.5
3741,-0.9619140625,0.15625,0.332275390625,1.625,1.625,-4.5
3743,-0.95947265625,0.15478515625,0.343017578125,-0.8125,0.4375,-4.25
3745,-0.95947265625,0.15478515625,0.343017578125,-0.8125,0.4375,-4.25
3747,-0.958984375,0.156494140625,0.35302734375,-2.875,-0.875,-4.125
3749,-0.958984375,0.156494140625,0.35302734375,-2.875,-0.875,-4.125
3751,-0.958984375,0.1591796875,0.35693359375,-4.625,-1.625,-3.625
3753,-0.956787109375,0.1591796875,0.35693359375,-4.625,-1.625,-3.625
3755,-0.956787109375,0.1591796875,0.35693359375,-4.625,-1.625,-3.625
3757,-0.954345703125,0.16064453125,0.35791015625,-5.875,-2.1875,-3.125
3759,-0.954345703125,0.16064453125,0.35791015625,-5.875,-2.1875,-3.125
3761,-0.952392578125,0.165771484375,0.36572265625,-6.5625,-2.5625,-3
3763,-0.952392578125,0.165771484375,0.36572265625,-6.5625,-2.5625,-3
3765,-0.953369140625,0.1728515625,0.373779296875,-6.9375,-2.5625,-3.4375
3767,-0.953369140625,0.1728515625,0.373779296875,-6.9375,-2.5625,-3.4375
3769,-0.95556640625,0.181396484375,0.380615234375,-6.8125,-2.5,-4.0625
