time,acc_x,acc_y,acc_z,gyro_x,gyro_y,gyro_z,temp
0,0.0,0.0,0.0,0.0,0.0,0.0,0.0
2,0.0,0.0,0.0,0.0,0.0,0.0,0.0
4,0.0,0.0,0.0,0.0,0.0,0.0,0.0
6,0.0,0.0,0.0,0.0,0.0,0.0,0.0
7,0.0,0.0,0.0,0.0,0.0,0.0,0.0
9,0.0,0.0,0.0,0.0,0.0,0.0,0.0
11,0.0,0.0,0.0,0.0,0.0,0.0,0.0
13,0.0,0.0,0.0,0.0,0.0,0.0,0.0
14,0.0,0.0,0.0,0.0,0.0,0.0,0.0
16,0.0,0.0,0.0,0.0,0.0,0.0,0.0
18,0.0,0.0,0.0,0.0,0.0,0.0,0.0
20,0.0,0.0,0.0,0.0,0.0,0.0,0.0
22,0.0,0.0,0.0,0.0,0.0,0.0,0.0
23,0.0,0.0,0.0,0.0,0.0,0.0,0.0
25,0.0,0.0,0.0,0.0,0.0,0.0,0.0
27,0.0,0.0,0.0,0.0,0.0,0.0,0.0
29,0.0,0.0,0.0,0.0,0.0,0.0,0.0
30,0.0,0.0,0.0,0.0,0.0,0.0,0.0
33,0.0,0.0,0.0,0.0,0.0,0.0,0.0
34,0.0,0.0,0.0,0.0,0.0,0.0,0.0
36,0.0,0.0,0.0,0.0,0.0,0.0,0.0
38,0.0,0.0,0.0,0.0,0.0,0.0,0.0
40,0.0,0.0,0.0,0.0,0.0,0.0,0.0
42,0.0,0.0,0.0,0.0,0.0,0.0,0.0
43,0.0,0.0,0.0,0.0,0.0,0.0,0.0
45,0.0,0.0,0.0,0.0,0.0,0.0,0.0
47,0.0,0.0,0.0,0.0,0.0,0.0,0.0
49,0.0,0.0,0.0,0.0,0.0,0.0,0.0
50,0.0,0.0,0.0,0.0,0.0,0.0,0.0
52,0.0,0.0,0.0,0.0,0.0,0.0,0.0
54,0.0,0.0,0.0,0.0,0.0,0.0,0.0
56,0.0,0.0,0.0,0.0,0.0,0.0,0.0
58,0.0,0.0,0.0,0.0,0.0,0.0,0.0
59,0.0,0.0,0.0,0.0,0.0,0.0,0.0
61,0.0,0.0,0.0,0.0,0.0,0.0,0.0
63,0.0,0.0,0.0,0.0,0.0,0.0,0.0
65,0.0,0.0,0.0,0.0,0.0,0.0,0.0
67,0.0,0.0,0.0,0.0,0.0,0.0,0.0
69,0.0,0.0,0.0,0.0,0.0,0.0,0.0
70,0.0,0.0,0.0,0.0,0.0,0.0,0.0
72,0.0,0.0,0.0,0.0,0.0,0.0,0.0
74,0.0,0.0,0.0,0.0,0.0,0.0,0.0
76,0.0,0.0,0.0,0.0,0.0,0.0,0.0
77,0.0,0.0,0.0,0.0,0.0,0.0,0.0
79,0.0,0.0,0.0,0.0,0.0,0.0,0.0
81,0.0,0.0,0.0,0.0,0.0,0.0,0.0
83,0.0,0.0,0.0,0.0,0.0,0.0,0.0
85,0.0,0.0,0.0,0.0,0.0,0.0,0.0
86,0.0,0.0,0.0,0.0,0.0,0.0,0.0
88,0.0,0.0,0.0,0.0,0.0,0.0,0.0
90,0.0,0.0,0.0,0.0,0.0,0.0,0.0
92,0.0,0.0,0.0,0.0,0.0,0.0,0.0
94,0.0,0.0,0.0,0.0,0.0,0.0,0.0
95,0.0,0.0,0.0,0.0,0.0,0.0,0.0
98,1.462158203125,1.529052734375,1.517578125,442.8125,253.25,441.75,36.3671875
100,1.462158203125,1.529052734375,1.517578125,442.8125,253.25,441.75,36.3671875
101,7.999755859375,4.7412109375,-8.0,-2048.0,890.1875,-2048.0,36.3671875
103,7.999755859375,4.7412109375,-8.0,-2048.0,890.1875,-2048.0,36.3671875
105,7.999755859375,-8.0,7.999755859375,-783.4375,-2048.0,-2048.0,36.3671875
107,7.999755859375,-8.0,7.999755859375,-783.4375,-2048.0,-2048.0,36.3671875
109,7.999755859375,-8.0,7.999755859375,-783.4375,-2048.0,-2048.0,36.3671875
111,-0.882568359375,0.208984375,-0.40478515625,7.875,1.75,-1.1875,36.3671875
113,-0.882568359375,0.208984375,-0.40478515625,7.875,1.75,-1.1875,36.3671875
114,-0.88037109375,0.2138671875,-0.4052734375,7.8125,2.4375,-0.75,36.3671875
116,-0.88037109375,0.2138671875,-0.4052734375,7.8125,2.4375,-0.75,36.3671875
118,-0.88232421875,0.217041015625,-0.40673828125,7.1875,2.9375,-0.5625,36.3671875
121,-0.88232421875,0.217041015625,-0.40673828125,7.1875,2.9375,-0.5625,36.3671875
123,-0.882568359375,0.21875,-0.409423828125,5.0,3.4375,-0.3125,36.5078125
125,-0.882568359375,0.21875,-0.409423828125,5.0,3.4375,-0.3125,36.5078125
126,-0.882568359375,0.21875,-0.409423828125,5.0,3.4375,-0.3125,36.5078125
128,-0.8818359375,0.2216796875,-0.413330078125,3.4375,3.625,0.1875,36.5078125
130,-0.8818359375,0.2216796875,-0.413330078125,3.4375,3.625,0.1875,36.5078125
132,-0.884033203125,0.224609375,-0.4169921875,2.375,3.5,0.625,36.5078125
134,-0.884033203125,0.224609375,-0.4169921875,2.375,3.5,0.625,36.5078125
136,-0.884521484375,0.2294921875,-0.423095703125,1.6875,3.4375,0.6875,36.5078125
138,-0.884521484375,0.2294921875,-0.423095703125,1.6875,3.4375,0.6875,36.5078125
140,-0.884521484375,0.2294921875,-0.423095703125,1.6875,3.4375,0.6875,36.5078125
142,-0.879638671875,0.232177734375,-0.423828125,0.6875,3.25,0.75,36.5078125
144,-0.879638671875,0.232177734375,-0.423828125,0.6875,3.25,0.75,36.5078125
146,-0.87939453125,0.227783203125,-0.428955078125,0.125,3.375,0.8125,36.5078125
148,-0.87939453125,0.227783203125,-0.428955078125,0.125,3.375,0.8125,36.5078125
150,-0.87841796875,0.222900390625,-0.435546875,0.125,3.375,0.4375,36.5078125
152,-0.87841796875,0.222900390625,-0.435546875,0.125,3.375,0.4375,36.5078125
154,-0.8701171875,0.221923828125,-0.43408203125,-0.4375,3.0,0.0625,36.5078125
156,-0.8701171875,0.221923828125,-0.43408203125,-0.4375,3.0,0.0625,36.5078125
158,-0.86474609375,0.216552734375,-0.438720703125,-0.9375,2.625,0.3125,36.5078125
160,-0.86474609375,0.216552734375,-0.438720703125,-0.9375,2.625,0.3125,36.5078125
162,-0.86474609375,0.216552734375,-0.438720703125,-0.9375,2.625,0.3125,36.5078125
164,-0.8623046875,0.208984375,-0.44677734375,-1.125,2.125,0.3125,36.5078125
166,-0.8623046875,0.208984375,-0.44677734375,-1.125,2.125,0.3125,36.5078125
168,-0.860107421875,0.205810546875,-0.444580078125,-1.25,1.75,0.75,36.5078125
170,-0.860107421875,0.205810546875,-0.444580078125,-1.25,1.75,0.75,36.5078125
172,-0.8623046875,0.202392578125,-0.4482421875,-1.75,1.5625,1.375,36.5078125
174,-0.8623046875,0.202392578125,-0.4482421875,-1.75,1.5625,1.375,36.5078125
176,-0.863037109375,0.202392578125,-0.45361328125,-2.3125,1.125,1.625,36.5078125
178,-0.863037109375,0.202392578125,-0.45361328125,-2.3125,1.125,1.625,36.5078125
180,-0.863037109375,0.2041015625,-0.451416015625,-3.125,0.8125,1.9375,36.5078125
182,-0.85546875,0.2041015625,-0.451416015625,-3.125,0.8125,1.9375,36.5078125
184,-0.85546875,0.2041015625,-0.451416015625,-3.125,0.8125,1.9375,36.5078125
186,-0.854248046875,0.205810546875,-0.4541015625,-3.5625,0.5625,2.3125,36.5078125
188,-0.854248046875,0.205810546875,-0.4541015625,-3.5625,0.5625,2.3125,36.5078125
190,-0.8505859375,0.214111328125,-0.453857421875,-3.5,0.5625,2.25,36.5078125
192,-0.8505859375,0.214111328125,-0.453857421875,-3.5,0.5625,2.25,36.5078125
194,-0.845947265625,0.228759765625,-0.449462890625,-3.0,0.75,2.125,36.5078125
196,-0.845947265625,0.228759765625,-0.449462890625,-3.0,0.75,2.125,36.5078125
198,-0.845947265625,0.2431640625,-0.438232421875,-3.1875,0.875,1.6875,36.5078125
200,-0.849609375,0.2431640625,-0.438232421875,-3.1875,0.875,1.6875,36.5078125
202,-0.849609375,0.2431640625,-0.438232421875,-3.1875,0.875,1.6875,36.5078125
204,-0.851318359375,0.252685546875,-0.423828125,-4.625,1.375,1.5625,36.5078125
205,-0.851318359375,0.252685546875,-0.423828125,-4.625,1.375,1.5625,36.5078125
207,-0.857421875,0.256591796875,-0.4208984375,-6.375,2.0625,0.8125,36.5078125
209,-0.857421875,0.256591796875,-0.4208984375,-6.375,2.0625,0.8125,36.5078125
211,-0.860107421875,0.257080078125,-0.43603515625,-6.875,2.5,-0.375,36.5078125
213,-0.860107421875,0.257080078125,-0.43603515625,-6.875,2.5,-0.375,36.5078125
216,-0.85791015625,0.258056640625,-0.441650390625,-6.6875,3.125,-1.5,36.5078125
217,-0.85791015625,0.258056640625,-0.441650390625,-6.6875,3.125,-1.5,36.5078125
219,-0.85791015625,0.258056640625,-0.441650390625,-6.6875,3.125,-1.5,36.5078125
221,-0.8583984375,0.25830078125,-0.443115234375,-6.5625,3.5,-2.6875,36.5078125
223,-0.8583984375,0.25830078125,-0.443115234375,-6.5625,3.5,-2.6875,36.5078125
225,-0.86376953125,0.2578125,-0.447509765625,-7.1875,3.3125,-3.4375,36.5078125
227,-0.86376953125,0.2578125,-0.447509765625,-7.1875,3.3125,-3.4375,36.5078125
229,-0.87158203125,0.25439453125,-0.45458984375,-7.4375,2.9375,-3.875,36.5078125
231,-0.87158203125,0.25439453125,-0.45458984375,-7.4375,2.9375,-3.875,36.5078125
233,-0.87158203125,0.25439453125,-0.45458984375,-7.4375,2.9375,-3.875,36.5078125
235,-0.875244140625,0.252685546875,-0.454833984375,-7.5625,2.4375,-4.3125,36.5078125
237,-0.875244140625,0.252685546875,-0.454833984375,-7.5625,2.4375,-4.3125,36.5078125
239,-0.880615234375,0.255615234375,-0.45849609375,-7.4375,1.6875,-4.5625,36.5078125
241,-0.880615234375,0.255615234375,-0.45849609375,-7.4375,1.6875,-4.5625,36.5078125
242,-0.8857421875,0.261474609375,-0.45947265625,-7.6875,1.0,-4.9375,36.5078125
244,-0.8857421875,0.261474609375,-0.45947265625,-7.6875,1.0,-4.9375,36.5078125
246,-0.8857421875,0.261474609375,-0.45947265625,-7.6875,1.0,-4.9375,36.5078125
248,-0.889404296875,0.260009765625,-0.455810546875,-8.1875,0.75,-5.625,36.5078125
250,-0.889404296875,0.260009765625,-0.455810546875,-8.1875,0.75,-5.625,36.5078125
252,-0.8896484375,0.252685546875,-0.4580078125,-8.1875,0.375,-6.0625,36.5078125
254,-0.8896484375,0.252685546875,-0.4580078125,-8.1875,0.375,-6.0625,36.5078125
256,-0.89208984375,0.245849609375,-0.45654296875,-7.5,-0.125,-6.25,36.5078125
258,-0.89208984375,0.245849609375,-0.45654296875,-7.5,-0.125,-6.25,36.5078125
260,-0.893798828125,0.239013671875,-0.453125,-6.75,-0.6875,-6.125,36.5078125
262,-0.893798828125,0.239013671875,-0.453125,-6.75,-0.6875,-6.125,36.5078125
264,-0.897705078125,0.22998046875,-0.44873046875,-5.3125,-0.8125,-5.6875,36.50390625
266,-0.897705078125,0.22998046875,-0.44873046875,-5.3125,-0.8125,-5.6875,36.50390625
268,-0.897705078125,0.22998046875,-0.44873046875,-5.3125,-0.8125,-5.6875,36.50390625
270,-0.8984375,0.221435546875,-0.441650390625,-4.25,-0.6875,-5.25,36.50390625
272,-0.8984375,0.221435546875,-0.441650390625,-4.25,-0.6875,-5.25,36.50390625
274,-0.89892578125,0.215576171875,-0.432861328125,-3.3125,-0.25,-4.375,36.50390625
276,-0.89892578125,0.215576171875,-0.432861328125,-3.3125,-0.25,-4.375,36.50390625
278,-0.91162109375,0.2138671875,-0.4296875,-2.0625,0.4375,-3.5625,36.50390625
280,-0.91162109375,0.2138671875,-0.4296875,-2.0625,0.4375,-3.5625,36.50390625
282,-0.91357421875,0.208740234375,-0.42333984375,-1.0625,0.375,-2.5,36.50390625
284,-0.91357421875,0.208740234375,-0.42333984375,-1.0625,0.375,-2.5,36.50390625
286,-0.91357421875,0.208740234375,-0.42333984375,-1.0625,0.375,-2.5,36.50390625
288,-0.90869140625,0.203369140625,-0.419921875,0.125,0.5625,-1.125,36.50390625
290,-0.90869140625,0.203369140625,-0.419921875,0.125,0.5625,-1.125,36.50390625
292,-0.906982421875,0.202392578125,-0.423828125,1.0,1.1875,0.0625,36.50390625
294,-0.906982421875,0.202392578125,-0.423828125,1.0,1.1875,0.0625,36.50390625
296,-0.906005859375,0.20556640625,-0.421630859375,1.5,1.9375,1.0,36.50390625
297,-0.906005859375,0.20556640625,-0.421630859375,1.5,1.9375,1.0,36.50390625
299,-0.906005859375,0.20556640625,-0.421630859375,1.5,1.9375,1.0,36.50390625
301,-0.901611328125,0.20849609375,-0.41748046875,2.125,2.5625,2.0,36.50390625
303,-0.901611328125,0.20849609375,-0.41748046875,2.125,2.5625,2.0,36.50390625
306,-0.89892578125,0.212158203125,-0.41455078125,2.75,3.1875,2.375,36.50390625
308,-0.89892578125,0.212158203125,-0.41455078125,2.75,3.1875,2.375,36.50390625
309,-0.90185546875,0.220703125,-0.413330078125,3.125,3.625,2.5625,36.50390625
311,-0.90185546875,0.220703125,-0.413330078125,3.125,3.625,2.5625,36.50390625
313,-0.9013671875,0.227783203125,-0.412109375,3.25,3.8125,2.8125,36.50390625
315,-0.9013671875,0.227783203125,-0.412109375,3.25,3.8125,2.8125,36.50390625
317,-0.9013671875,0.227783203125,-0.412109375,3.25,3.8125,2.8125,36.50390625
319,-0.90185546875,0.22998046875,-0.41162109375,2.6875,4.375,2.9375,36.50390625
321,-0.90185546875,0.22998046875,-0.41162109375,2.6875,4.375,2.9375,36.50390625
323,-0.900390625,0.228515625,-0.415283203125,2.125,5.5,3.1875,36.50390625
325,-0.900390625,0.228515625,-0.415283203125,2.125,5.5,3.1875,36.50390625
326,-0.899169921875,0.2255859375,-0.418212890625,1.8125,6.25,3.0625,36.50390625
329,-0.899169921875,0.2255859375,-0.418212890625,1.8125,6.25,3.0625,36.50390625
331,-0.89794921875,0.2265625,-0.416259765625,1.75,7.1875,3.0625,36.50390625
333,-0.89794921875,0.2265625,-0.416259765625,1.75,7.1875,3.0625,36.50390625
335,-0.89794921875,0.2265625,-0.416259765625,1.75,7.1875,3.0625,36.50390625
337,-0.89404296875,0.226806640625,-0.4189453125,1.6875,7.75,3.0,36.50390625
338,-0.89404296875,0.226806640625,-0.4189453125,1.6875,7.75,3.0,36.50390625
340,-0.89404296875,0.2275390625,-0.424560546875,1.25,8.25,2.8125,36.50390625
342,-0.89404296875,0.2275390625,-0.424560546875,1.25,8.25,2.8125,36.50390625
344,-0.891357421875,0.224365234375,-0.431396484375,0.25,9.1875,2.9375,36.50390625
346,-0.891357421875,0.224365234375,-0.431396484375,0.25,9.1875,2.9375,36.50390625
348,-0.891357421875,0.224365234375,-0.431396484375,0.25,9.1875,2.9375,36.50390625
350,-0.889404296875,0.22607421875,-0.43115234375,-0.5625,10.0625,2.875,36.50390625
352,-0.889404296875,0.22607421875,-0.43115234375,-0.5625,10.0625,2.875,36.50390625
354,-0.89404296875,0.22607421875,-0.437744140625,-1.625,10.4375,2.75,36.50390625
356,-0.89404296875,0.22607421875,-0.437744140625,-1.625,10.4375,2.75,36.50390625
358,-0.890380859375,0.223876953125,-0.44189453125,-2.25,10.5,2.75,36.50390625
360,-0.890380859375,0.223876953125,-0.44189453125,-2.25,10.5,2.75,36.50390625
362,-0.88525390625,0.229736328125,-0.4423828125,-3.1875,10.9375,2.625,36.50390625
364,-0.88525390625,0.229736328125,-0.4423828125,-3.1875,10.9375,2.625,36.50390625
366,-0.88525390625,0.229736328125,-0.4423828125,-3.1875,10.9375,2.625,36.50390625
368,-0.880126953125,0.232177734375,-0.444091796875,-4.0625,11.375,2.9375,36.50390625
370,-0.880126953125,0.232177734375,-0.444091796875,-4.0625,11.375,2.9375,36.50390625
372,-0.880615234375,0.22900390625,-0.446533203125,-4.5625,11.625,2.625,36.50390625
374,-0.880615234375,0.22900390625,-0.446533203125,-4.5625,11.625,2.625,36.50390625
376,-0.880615234375,0.2265625,-0.44775390625,-5.125,11.8125,2.5,36.50390625
378,-0.880615234375,0.2265625,-0.44775390625,-5.125,11.8125,2.5,36.50390625
380,-0.881103515625,0.228515625,-0.448486328125,-5.625,11.9375,2.25,36.50390625
382,-0.881103515625,0.228515625,-0.448486328125,-5.625,11.9375,2.25,36.50390625
384,-0.881103515625,0.23388671875,-0.447021484375,-6.125,12.0625,1.75,36.50390625
386,-0.8798828125,0.23388671875,-0.447021484375,-6.125,12.0625,1.75,36.50390625
388,-0.8798828125,0.23388671875,-0.447021484375,-6.125,12.0625,1.75,36.50390625
390,-0.8798828125,0.242919921875,-0.44677734375,-6.625,12.75,1.5625,36.50390625
391,-0.8798828125,0.242919921875,-0.44677734375,-6.625,12.75,1.5625,36.50390625
393,-0.881103515625,0.252197265625,-0.44775390625,-6.5625,13.625,1.0625,36.50390625
396,-0.881103515625,0.252197265625,-0.44775390625,-6.5625,13.625,1.0625,36.50390625
398,-0.877197265625,0.259033203125,-0.446044921875,-5.8125,14.75,0.8125,36.50390625
400,-0.877197265625,0.259033203125,-0.446044921875,-5.8125,14.75,0.8125,36.50390625
402,-0.877685546875,0.26025390625,-0.447021484375,-5.0,15.375,0.9375,36.50390625
404,-0.877685546875,0.26025390625,-0.447021484375,-5.0,15.375,0.9375,36.50390625
406,-0.877685546875,0.26025390625,-0.447021484375,-5.0,15.375,0.9375,36.50390625
408,-0.878662109375,0.259033203125,-0.4423828125,-4.0625,15.125,1.0625,36.50390625
410,-0.878662109375,0.259033203125,-0.4423828125,-4.0625,15.125,1.0625,36.50390625
412,-0.884765625,0.259765625,-0.441650390625,-3.5,15.375,1.5,36.50390625
413,-0.884765625,0.259765625,-0.441650390625,-3.5,15.375,1.5,36.50390625
415,-0.889404296875,0.26025390625,-0.441650390625,-2.5,16.1875,1.5625,36.50390625
418,-0.889404296875,0.26025390625,-0.441650390625,-2.5,16.1875,1.5625,36.50390625
420,-0.892578125,0.265380859375,-0.435302734375,-1.625,17.3125,1.5625,36.50390625
421,-0.892578125,0.265380859375,-0.435302734375,-1.625,17.3125,1.5625,36.50390625
423,-0.892578125,0.265380859375,-0.435302734375,-1.625,17.3125,1.5625,36.50390625
425,-0.8916015625,0.266845703125,-0.426025390625,-1.1875,19.0,1.75,36.50390625
427,-0.8916015625,0.266845703125,-0.426025390625,-1.1875,19.0,1.75,36.50390625
429,-0.8955078125,0.26611328125,-0.425537109375,-1.1875,20.5,1.9375,36.50390625
431,-0.8955078125,0.26611328125,-0.425537109375,-1.1875,20.5,1.9375,36.50390625
433,-0.89599609375,0.26708984375,-0.427490234375,-1.375,22.1875,2.25,36.50390625
435,-0.89599609375,0.26708984375,-0.427490234375,-1.375,22.1875,2.25,36.50390625
437,-0.89599609375,0.26708984375,-0.427490234375,-1.375,22.1875,2.25,36.50390625
439,-0.892822265625,0.268798828125,-0.43212890625,-1.9375,23.9375,2.0625,36.50390625
441,-0.892822265625,0.268798828125,-0.43212890625,-1.9375,23.9375,2.0625,36.50390625
443,-0.89013671875,0.271484375,-0.433837890625,-2.5,25.375,2.25,36.50390625
445,-0.89013671875,0.271484375,-0.433837890625,-2.5,25.375,2.25,36.50390625
447,-0.887451171875,0.265869140625,-0.43408203125,-2.8125,26.8125,2.4375,36.50390625
449,-0.887451171875,0.265869140625,-0.43408203125,-2.8125,26.8125,2.4375,36.50390625
451,-0.887939453125,0.262939453125,-0.435546875,-2.9375,28.375,2.625,36.50390625
453,-0.887939453125,0.262939453125,-0.435546875,-2.9375,28.375,2.625,36.50390625
454,-0.887939453125,0.262939453125,-0.435546875,-2.9375,28.375,2.625,36.50390625
456,-0.883544921875,0.262451171875,-0.43359375,-2.5625,30.4375,3.0,36.50390625
458,-0.883544921875,0.262451171875,-0.43359375,-2.5625,30.4375,3.0,36.50390625
461,-0.878173828125,0.260009765625,-0.42724609375,-2.0,32.5,3.3125,36.50390625
463,-0.878173828125,0.260009765625,-0.42724609375,-2.0,32.5,3.3125,36.50390625
465,-0.8759765625,0.258544921875,-0.42236328125,-1.625,34.125,4.1875,36.50390625
467,-0.8759765625,0.258544921875,-0.42236328125,-1.625,34.125,4.1875,36.50390625
469,-0.873046875,0.25341796875,-0.425048828125,-1.0,35.625,4.8125,36.50390625
471,-0.873046875,0.25341796875,-0.425048828125,-1.0,35.625,4.8125,36.50390625
473,-0.86376953125,0.24951171875,-0.42431640625,-0.375,36.875,5.0625,36.50390625
475,-0.86376953125,0.24951171875,-0.42431640625,-0.375,36.875,5.0625,36.50390625
477,-0.86376953125,0.24951171875,-0.42431640625,-0.375,36.875,5.0625,36.50390625
478,-0.856689453125,0.24755859375,-0.422119140625,0.3125,38.375,5.6875,36.50390625
480,-0.856689453125,0.24755859375,-0.422119140625,0.3125,38.375,5.6875,36.50390625
482,-0.8525390625,0.242919921875,-0.41943359375,0.875,39.875,6.0,36.50390625
485,-0.8525390625,0.242919921875,-0.41943359375,0.875,39.875,6.0,36.50390625
487,-0.84716796875,0.239013671875,-0.41748046875,1.375,41.1875,6.4375,36.50390625
489,-0.84716796875,0.239013671875,-0.41748046875,1.375,41.1875,6.4375,36.50390625
490,-0.842041015625,0.237060546875,-0.416015625,1.875,42.5625,6.6875,36.50390625
492,-0.842041015625,0.237060546875,-0.416015625,1.875,42.5625,6.6875,36.50390625
494,-0.842041015625,0.237060546875,-0.416015625,1.875,42.5625,6.6875,36.50390625
496,-0.83642578125,0.2353515625,-0.415283203125,1.875,44.0,6.9375,36.50390625
498,-0.83642578125,0.2353515625,-0.415283203125,1.875,44.0,6.9375,36.50390625
500,-0.82568359375,0.232421875,-0.411865234375,1.5,45.25,7.625,36.50390625
502,-0.82568359375,0.232421875,-0.411865234375,1.5,45.25,7.625,36.50390625
504,-0.81787109375,0.23193359375,-0.409912109375,1.4375,46.25,8.125,36.50390625
506,-0.81787109375,0.23193359375,-0.409912109375,1.4375,46.25,8.125,36.50390625
508,-0.809814453125,0.22998046875,-0.408203125,1.6875,46.9375,9.0625,36.50390625
510,-0.809814453125,0.22998046875,-0.408203125,1.6875,46.9375,9.0625,36.50390625
512,-0.809814453125,0.22998046875,-0.408203125,1.6875,47.375,9.9375,36.50390625
514,-0.804931640625,0.2236328125,-0.410400390625,2.4375,47.375,9.9375,36.50390625
516,-0.804931640625,0.2236328125,-0.410400390625,2.4375,47.375,9.9375,36.50390625
518,-0.799072265625,0.214111328125,-0.40869140625,3.5625,47.4375,10.5,36.50390625
520,-0.799072265625,0.214111328125,-0.40869140625,3.5625,47.4375,10.5,36.50390625
522,-0.791259765625,0.20458984375,-0.406982421875,3.9375,47.875,10.6875,36.50390625
524,-0.791259765625,0.20458984375,-0.406982421875,3.9375,47.875,10.6875,36.50390625
526,-0.783935546875,0.197021484375,-0.408447265625,3.125,48.875,10.5625,36.50390625
528,-0.783935546875,0.197021484375,-0.408447265625,3.125,48.875,10.5625,36.50390625
530,-0.783935546875,0.197021484375,-0.412353515625,1.5,49.5,10.375,36.50390625
532,-0.776611328125,0.18505859375,-0.412353515625,1.5,49.5,10.375,36.50390625
534,-0.776611328125,0.18505859375,-0.412353515625,1.5,49.5,10.375,36.50390625
536,-0.766357421875,0.16845703125,-0.421142578125,-0.875,50.3125,9.9375,36.50390625
538,-0.766357421875,0.16845703125,-0.421142578125,-0.875,50.3125,9.9375,36.50390625
540,-0.7568359375,0.154296875,-0.429931640625,-3.5625,51.6875,9.5625,36.50390625
542,-0.7568359375,0.154296875,-0.429931640625,-3.5625,51.6875,9.5625,36.50390625
543,-0.7470703125,0.145751953125,-0.425537109375,-6.0,53.125,9.625,36.50390625
545,-0.7470703125,0.145751953125,-0.425537109375,-6.0,53.125,9.625,36.50390625
547,-0.7470703125,0.145751953125,-0.425537109375,-6.0,53.125,9.625,36.50390625
549,-0.740966796875,0.139892578125,-0.416015625,-8.25,54.625,10.1875,36.4921875
552,-0.740966796875,0.139892578125,-0.416015625,-8.25,54.625,10.1875,36.4921875
553,-0.73681640625,0.14453125,-0.413818359375,-10.5,56.3125,11.0625,36.4921875
555,-0.73681640625,0.14453125,-0.413818359375,-10.5,56.3125,11.0625,36.4921875
557,-0.720458984375,0.158935546875,-0.410888671875,-12.0625,58.125,11.875,36.4921875
559,-0.720458984375,0.158935546875,-0.410888671875,-12.0625,58.125,11.875,36.4921875
561,-0.69921875,0.16455078125,-0.40869140625,-12.9375,59.6875,13.1875,36.4921875
563,-0.69921875,0.16455078125,-0.40869140625,-12.9375,59.6875,13.1875,36.4921875
565,-0.69921875,0.16455078125,-0.40869140625,-12.9375,59.6875,13.1875,36.4921875
567,-0.684326171875,0.16064453125,-0.41357421875,-13.3125,60.6875,15.125,36.4921875
569,-0.684326171875,0.16064453125,-0.41357421875,-13.3125,60.6875,15.125,36.4921875
571,-0.670654296875,0.15625,-0.424072265625,-12.5,60.75,16.4375,36.4921875
573,-0.670654296875,0.15625,-0.424072265625,-12.5,60.75,16.4375,36.4921875
575,-0.658447265625,0.160888671875,-0.43310546875,-10.8125,60.375,17.5,36.4921875
577,-0.658447265625,0.160888671875,-0.43310546875,-10.8125,60.375,17.5,36.4921875
579,-0.658447265625,0.160888671875,-0.436767578125,-8.875,60.5625,18.5,36.4921875
580,-0.6533203125,0.167236328125,-0.436767578125,-8.875,60.5625,18.5,36.4921875
582,-0.6533203125,0.167236328125,-0.436767578125,-8.875,60.5625,18.5,36.4921875
584,-0.654541015625,0.170654296875,-0.44140625,-7.375,61.0,18.8125,36.4921875
586,-0.654541015625,0.170654296875,-0.44140625,-7.375,61.0,18.8125,36.4921875
588,-0.66064453125,0.173583984375,-0.451171875,-6.75,61.125,18.625,36.4921875
590,-0.66064453125,0.173583984375,-0.451171875,-6.75,61.125,18.625,36.4921875
592,-0.66064453125,0.17138671875,-0.468994140625,-7.625,61.3125,18.0625,36.4921875
594,-0.668701171875,0.17138671875,-0.468994140625,-7.625,61.3125,18.0625,36.4921875
597,-0.67822265625,0.16357421875,-0.49658203125,-9.75,61.75,17.625,36.4921875
598,-0.67822265625,0.16357421875,-0.49658203125,-9.75,61.75,17.625,36.4921875
600,-0.67822265625,0.16357421875,-0.49658203125,-9.75,61.75,17.625,36.4921875
602,-0.686279296875,0.154052734375,-0.5341796875,-12.1875,62.25,17.75,36.4921875
604,-0.686279296875,0.154052734375,-0.5341796875,-12.1875,62.25,17.75,36.4921875
606,-0.69677734375,0.1484375,-0.57861328125,-14.375,62.75,18.1875,36.4921875
608,-0.69677734375,0.1484375,-0.57861328125,-14.375,62.75,18.1875,36.4921875
610,-0.710205078125,0.1484375,-0.627685546875,-16.3125,62.75,19.3125,36.4921875
612,-0.710205078125,0.1484375,-0.627685546875,-16.3125,62.75,19.3125,36.4921875
614,-0.710205078125,0.1484375,-0.627685546875,-16.3125,62.75,19.3125,36.4921875
616,-0.720947265625,0.151123046875,-0.677734375,-18.0,62.0,21.25,36.4921875
618,-0.720947265625,0.151123046875,-0.677734375,-18.0,62.0,21.25,36.4921875
620,-0.726806640625,0.153564453125,-0.726806640625,-18.875,60.5625,24.25,36.4921875
622,-0.726806640625,0.153564453125,-0.726806640625,-18.875,60.5625,24.25,36.4921875
624,-0.731201171875,0.16259765625,-0.773193359375,-18.3125,58.6875,27.875,36.4921875
626,-0.731201171875,0.16259765625,-0.773193359375,-18.3125,58.6875,27.875,36.4921875
628,-0.736328125,0.179443359375,-0.8095703125,-16.25,56.375,32.125,36.4921875
630,-0.736328125,0.179443359375,-0.8095703125,-16.25,56.375,32.125,36.4921875
632,-0.736328125,0.179443359375,-0.8095703125,-16.25,56.375,32.125,36.4921875
634,-0.741943359375,0.206298828125,-0.841064453125,-13.0625,53.75,36.6875,36.4921875
635,-0.741943359375,0.206298828125,-0.841064453125,-13.0625,53.75,36.6875,36.4921875
637,-0.746826171875,0.24365234375,-0.869140625,-9.3125,50.875,41.0625,36.4921875
639,-0.746826171875,0.24365234375,-0.869140625,-9.3125,50.875,41.0625,36.4921875
642,-0.754638671875,0.285400390625,-0.896240234375,-5.125,47.25,44.6875,36.4921875
644,-0.754638671875,0.285400390625,-0.896240234375,-5.125,47.25,44.6875,36.4921875
646,-0.75830078125,0.32763671875,-0.92138671875,-0.9375,42.75,47.6875,36.4921875
647,-0.75830078125,0.32763671875,-0.92138671875,-0.9375,42.75,47.6875,36.4921875
649,-0.75830078125,0.32763671875,-0.92138671875,-0.9375,42.75,47.6875,36.4921875
651,-0.76318359375,0.37060546875,-0.947998046875,2.5,38.6875,49.5,36.4921875
653,-0.76318359375,0.37060546875,-0.947998046875,2.5,38.6875,49.5,36.4921875
655,-0.76708984375,0.41357421875,-0.97119140625,5.5625,35.0625,50.0625,36.4921875
657,-0.76708984375,0.41357421875,-0.97119140625,5.5625,35.0625,50.0625,36.4921875
659,-0.7734375,0.451171875,-0.988525390625,8.5625,32.1875,48.9375,36.4921875
661,-0.7734375,0.451171875,-0.988525390625,8.5625,32.1875,48.9375,36.4921875
664,-0.781005859375,0.48046875,-0.993408203125,11.3125,29.875,47.0,36.4921875
666,-0.781005859375,0.48046875,-0.993408203125,11.3125,29.875,47.0,36.4921875
667,-0.7958984375,0.49951171875,-0.99365234375,12.5625,27.4375,43.6875,36.4921875
669,-0.7958984375,0.49951171875,-0.99365234375,12.5625,27.4375,43.6875,36.4921875
671,-0.7958984375,0.49951171875,-0.99365234375,12.5625,27.4375,43.6875,36.4921875
673,-0.818115234375,0.504150390625,-0.99658203125,11.4375,26.1875,39.8125,36.4921875
675,-0.818115234375,0.504150390625,-0.99658203125,11.4375,26.1875,39.8125,36.4921875
677,-0.8427734375,0.495361328125,-0.994873046875,7.6875,26.5625,35.4375,36.4921875
679,-0.8427734375,0.495361328125,-0.994873046875,7.6875,26.5625,35.4375,36.4921875
681,-0.87060546875,0.484375,-0.99755859375,2.0625,27.4375,31.1875,36.4921875
683,-0.87060546875,0.484375,-0.99755859375,2.0625,27.4375,31.1875,36.4921875
685,-0.8916015625,0.478271484375,-1.0078125,-4.125,28.0625,27.3125,36.4921875
687,-0.8916015625,0.478271484375,-1.0078125,-4.125,28.0625,27.3125,36.4921875
689,-0.8916015625,0.478271484375,-1.0078125,-4.125,28.0625,27.3125,36.4921875
691,-0.9052734375,0.4716796875,-1.025390625,-9.9375,28.0625,24.4375,36.578125
693,-0.9052734375,0.4716796875,-1.025390625,-9.9375,28.0625,24.4375,36.578125
695,-0.917724609375,0.46875,-1.051025390625,-14.5625,27.4375,23.0625,36.578125
697,-0.917724609375,0.46875,-1.051025390625,-14.5625,27.4375,23.0625,36.578125
699,-0.9267578125,0.470703125,-1.078857421875,-16.625,26.0625,23.1875,36.578125
700,-0.9267578125,0.470703125,-1.078857421875,-16.625,26.0625,23.1875,36.578125
702,-0.9267578125,0.470703125,-1.078857421875,-16.625,26.0625,23.1875,36.578125
704,-0.9306640625,0.474609375,-1.103759765625,-16.25,23.8125,24.6875,36.578125
706,-0.9306640625,0.474609375,-1.103759765625,-16.25,23.8125,24.6875,36.578125
709,-0.928955078125,0.4873046875,-1.125244140625,-13.375,20.3125,27.25,36.578125
711,-0.928955078125,0.4873046875,-1.125244140625,-13.375,20.3125,27.25,36.578125
713,-0.921630859375,0.510009765625,-1.15185546875,-8.625,16.1875,30.375,36.578125
715,-0.921630859375,0.510009765625,-1.15185546875,-8.625,16.1875,30.375,36.578125
716,-0.905029296875,0.537109375,-1.17919921875,-2.5625,11.1875,33.3125,36.578125
718,-0.905029296875,0.537109375,-1.17919921875,-2.5625,11.1875,33.3125,36.578125
720,-0.905029296875,0.537109375,-1.17919921875,-2.5625,11.1875,33.3125,36.578125
722,-0.88671875,0.562744140625,-1.21044921875,3.4375,5.6875,35.6875,36.578125
724,-0.88671875,0.562744140625,-1.21044921875,3.4375,5.6875,35.6875,36.578125
726,-0.868408203125,0.585205078125,-1.24072265625,8.5625,-0.125,37.1875,36.578125
728,-0.868408203125,0.585205078125,-1.24072265625,8.5625,-0.125,37.1875,36.578125
730,-0.85107421875,0.601318359375,-1.262451171875,12.8125,-6.0625,37.0625,36.578125
732,-0.85107421875,0.601318359375,-1.262451171875,12.8125,-6.0625,37.0625,36.578125
734,-0.835693359375,0.608642578125,-1.27734375,16.25,-11.9375,35.75,36.578125
736,-0.835693359375,0.608642578125,-1.27734375,16.25,-11.9375,35.75,36.578125
738,-0.835693359375,0.608642578125,-1.27734375,18.5,-17.9375,33.1875,36.578125
740,-0.817138671875,0.607421875,-1.29248046875,18.5,-17.9375,33.1875,36.578125
742,-0.817138671875,0.607421875,-1.29248046875,18.5,-17.9375,33.1875,36.578125
744,-0.79931640625,0.604248046875,-1.30419921875,18.875,-24.375,29.0,36.578125
746,-0.79931640625,0.604248046875,-1.30419921875,18.875,-24.375,29.0,36.578125
748,-0.781005859375,0.60595703125,-1.318115234375,17.375,-30.75,23.75,36.578125
750,-0.781005859375,0.60595703125,-1.318115234375,17.375,-30.75,23.75,36.578125
752,-0.761474609375,0.605224609375,-1.335693359375,14.5,-37.6875,18.0625,36.578125
754,-0.761474609375,0.605224609375,-1.335693359375,14.5,-37.6875,18.0625,36.578125
756,-0.740966796875,0.5888671875,-1.355712890625,11.0625,-45.1875,12.4375,36.578125
758,-0.740966796875,0.5888671875,-1.355712890625,11.0625,-45.1875,12.4375,36.578125
760,-0.740966796875,0.5888671875,-1.355712890625,11.0625,-45.1875,12.4375,36.578125
762,-0.725341796875,0.56201171875,-1.37548828125,6.9375,-53.125,7.1875,36.578125
764,-0.725341796875,0.56201171875,-1.37548828125,6.9375,-53.125,7.1875,36.578125
766,-0.712158203125,0.5302734375,-1.3955078125,2.5625,-61.5,1.875,36.578125
768,-0.712158203125,0.5302734375,-1.3955078125,2.5625,-61.5,1.875,36.578125
770,-0.70166015625,0.510009765625,-1.406982421875,-1.75,-70.4375,-3.4375,36.578125
771,-0.70166015625,0.510009765625,-1.406982421875,-1.75,-70.4375,-3.4375,36.578125
774,-0.702392578125,0.495849609375,-1.412841796875,-5.6875,-79.1875,-7.0625,36.578125
776,-0.702392578125,0.495849609375,-1.412841796875,-5.6875,-79.1875,-7.0625,36.578125
778,-0.702392578125,0.495849609375,-1.412841796875,-5.6875,-79.1875,-7.0625,36.578125
780,-0.700927734375,0.476806640625,-1.413330078125,-8.1875,-88.0625,-9.4375,36.578125
782,-0.700927734375,0.476806640625,-1.413330078125,-8.1875,-88.0625,-9.4375,36.578125
784,-0.69287109375,0.4521484375,-1.40234375,-9.875,-96.6875,-10.25,36.578125
786,-0.69287109375,0.4521484375,-1.40234375,-9.875,-96.6875,-10.25,36.578125
788,-0.690185546875,0.42626953125,-1.391845703125,-11.375,-105.3125,-10.3125,36.578125
789,-0.690185546875,0.42626953125,-1.391845703125,-11.375,-105.3125,-10.3125,36.578125
791,-0.690185546875,0.411376953125,-1.377685546875,-12.5625,-113.9375,-10.25,36.578125
793,-0.68994140625,0.411376953125,-1.377685546875,-12.5625,-113.9375,-10.25,36.578125
796,-0.68994140625,0.411376953125,-1.377685546875,-12.5625,-113.9375,-9.9375,36.578125
798,-0.6875,0.402587890625,-1.360595703125,-13.5,-122.0625,-9.9375,36.578125
799,-0.6875,0.402587890625,-1.360595703125,-13.5,-122.0625,-9.9375,36.578125
801,-0.688720703125,0.3896484375,-1.3330078125,-14.5,-129.25,-9.6875,36.578125
803,-0.688720703125,0.3896484375,-1.3330078125,-14.5,-129.25,-9.6875,36.578125
805,-0.693603515625,0.36865234375,-1.280029296875,-15.3125,-135.3125,-9.1875,36.578125
807,-0.693603515625,0.36865234375,-1.280029296875,-15.3125,-135.3125,-9.1875,36.578125
809,-0.693603515625,0.35400390625,-1.212646484375,-15.8125,-140.0625,-9.125,36.578125
811,-0.70068359375,0.35400390625,-1.212646484375,-15.8125,-140.0625,-9.125,36.578125
813,-0.70068359375,0.35400390625,-1.212646484375,-15.8125,-140.0625,-9.125,36.578125
815,-0.71435546875,0.345703125,-1.1396484375,-17.125,-143.0625,-9.4375,36.578125
817,-0.71435546875,0.345703125,-1.1396484375,-17.125,-143.0625,-9.4375,36.578125
819,-0.736083984375,0.345947265625,-1.06982421875,-19.9375,-143.875,-10.125,36.578125
821,-0.736083984375,0.345947265625,-1.06982421875,-19.9375,-143.875,-10.125,36.578125
823,-0.764892578125,0.349609375,-1.01171875,-23.0,-144.5,-11.125,36.578125
825,-0.764892578125,0.349609375,-1.01171875,-23.0,-144.5,-11.125,36.578125
827,-0.77783203125,0.359130859375,-0.96826171875,-25.875,-145.0625,-12.25,36.578125
829,-0.77783203125,0.359130859375,-0.96826171875,-25.875,-145.0625,-12.25,36.578125
831,-0.77783203125,0.359130859375,-0.96826171875,-25.875,-145.0625,-12.25,36.578125
832,-0.78076171875,0.359619140625,-0.938232421875,-28.0,-144.875,-13.0,36.51171875
834,-0.78076171875,0.359619140625,-0.938232421875,-28.0,-144.875,-13.0,36.51171875
836,-0.786376953125,0.347412109375,-0.911376953125,-29.625,-143.9375,-13.6875,36.51171875
839,-0.786376953125,0.347412109375,-0.911376953125,-29.625,-143.9375,-13.6875,36.51171875
841,-0.799072265625,0.33837890625,-0.887451171875,-30.875,-143.0625,-14.125,36.51171875
842,-0.799072265625,0.33837890625,-0.887451171875,-30.875,-143.0625,-14.125,36.51171875
845,-0.799072265625,0.33837890625,-0.887451171875,-30.875,-142.375,-14.25,36.51171875
846,-0.81689453125,0.33349609375,-0.860107421875,-31.3125,-142.375,-14.25,36.51171875
848,-0.81689453125,0.33349609375,-0.860107421875,-31.3125,-142.375,-14.25,36.51171875
850,-0.82958984375,0.34814453125,-0.8447265625,-31.6875,-141.8125,-14.3125,36.51171875
852,-0.82958984375,0.34814453125,-0.8447265625,-31.6875,-141.8125,-14.3125,36.51171875
854,-0.832763671875,0.3623046875,-0.834228515625,-32.6875,-141.125,-14.6875,36.51171875
857,-0.832763671875,0.3623046875,-0.834228515625,-32.6875,-141.125,-14.6875,36.51171875
858,-0.83251953125,0.369384765625,-0.837646484375,-34.3125,-140.25,-15.4375,36.51171875
861,-0.83251953125,0.369384765625,-0.837646484375,-34.3125,-140.25,-15.4375,36.51171875
863,-0.82861328125,0.37744140625,-0.84033203125,-36.9375,-140.125,-16.25,36.51171875
865,-0.82861328125,0.37744140625,-0.84033203125,-36.9375,-140.125,-16.25,36.51171875
867,-0.82861328125,0.374267578125,-0.846923828125,-40.4375,-141.125,-17.0625,36.51171875
868,-0.822509765625,0.374267578125,-0.846923828125,-40.4375,-141.125,-17.0625,36.51171875
870,-0.822509765625,0.374267578125,-0.846923828125,-40.4375,-141.125,-17.0625,36.51171875
872,-0.819091796875,0.365966796875,-0.8564453125,-41.875,-142.9375,-17.375,36.51171875
874,-0.819091796875,0.365966796875,-0.8564453125,-41.875,-142.9375,-17.375,36.51171875
876,-0.8076171875,0.370849609375,-0.884521484375,-40.125,-146.0,-16.9375,36.51171875
878,-0.8076171875,0.370849609375,-0.884521484375,-40.125,-146.0,-16.9375,36.51171875
880,-0.78955078125,0.381103515625,-0.908447265625,-36.0625,-149.5,-15.875,36.51171875
883,-0.78955078125,0.381103515625,-0.908447265625,-36.0625,-149.5,-15.875,36.51171875
885,-0.78955078125,0.388916015625,-0.917236328125,-31.125,-154.0625,-13.25,36.51171875
886,-0.76611328125,0.388916015625,-0.917236328125,-31.125,-154.0625,-13.25,36.51171875
888,-0.76611328125,0.388916015625,-0.917236328125,-31.125,-154.0625,-13.25,36.51171875
890,-0.73974609375,0.395751953125,-0.917236328125,-25.4375,-161.1875,-10.0,36.51171875
892,-0.73974609375,0.395751953125,-0.917236328125,-25.4375,-161.1875,-10.0,36.51171875
894,-0.708984375,0.40283203125,-0.914794921875,-18.75,-171.9375,-6.5,36.51171875
896,-0.708984375,0.40283203125,-0.914794921875,-18.75,-171.9375,-6.5,36.51171875
898,-0.6787109375,0.406494140625,-0.9072265625,-11.3125,-185.5,-3.3125,36.51171875
900,-0.6787109375,0.406494140625,-0.9072265625,-11.3125,-185.5,-3.3125,36.51171875
902,-0.6787109375,0.406494140625,-0.9072265625,-11.3125,-185.5,-3.3125,36.51171875
904,-0.65771484375,0.407958984375,-0.886474609375,-3.5,-200.125,-0.125,36.51171875
906,-0.65771484375,0.407958984375,-0.886474609375,-3.5,-200.125,-0.125,36.51171875
908,-0.64501953125,0.4091796875,-0.849853515625,4.1875,-214.8125,3.0625,36.51171875
910,-0.64501953125,0.4091796875,-0.849853515625,4.1875,-214.8125,3.0625,36.51171875
912,-0.634033203125,0.4140625,-0.80517578125,10.25,-228.75,5.25,36.51171875
914,-0.634033203125,0.4140625,-0.80517578125,10.25,-228.75,5.25,36.51171875
916,-0.621826171875,0.42431640625,-0.756103515625,13.875,-241.75,6.4375,36.51171875
918,-0.621826171875,0.42431640625,-0.756103515625,13.875,-241.75,6.4375,36.51171875
920,-0.6083984375,0.428955078125,-0.70361328125,14.625,-253.75,6.375,36.51171875
922,-0.6083984375,0.428955078125,-0.70361328125,14.625,-253.75,6.375,36.51171875
924,-0.6083984375,0.428955078125,-0.70361328125,12.3125,-264.625,4.875,36.51171875
927,-0.588134765625,0.4326171875,-0.659423828125,12.3125,-264.625,4.875,36.51171875
929,-0.588134765625,0.4326171875,-0.61474609375,7.125,-273.375,2.75,36.51171875
930,-0.56201171875,0.43505859375,-0.61474609375,7.125,-273.375,2.75,36.51171875
932,-0.56201171875,0.43505859375,-0.61474609375,7.125,-273.375,2.75,36.51171875
934,-0.54833984375,0.435791015625,-0.57763671875,-0.125,-279.6875,0.3125,36.51171875
936,-0.54833984375,0.435791015625,-0.57763671875,-0.125,-279.6875,0.3125,36.51171875
938,-0.538818359375,0.4326171875,-0.5400390625,-7.125,-281.0625,-2.0625,36.51171875
940,-0.538818359375,0.4326171875,-0.5400390625,-7.125,-281.0625,-2.0625,36.51171875
942,-0.513916015625,0.42529296875,-0.4833984375,-14.625,-283.0625,-4.25,36.51171875
944,-0.513916015625,0.42529296875,-0.4833984375,-14.625,-283.0625,-4.25,36.51171875
946,-0.513916015625,0.42529296875,-0.4833984375,-14.625,-283.0625,-4.25,36.51171875
949,-0.476806640625,0.41064453125,-0.438720703125,-21.8125,-286.8125,-7.0625,36.51171875
950,-0.476806640625,0.41064453125,-0.438720703125,-21.8125,-286.8125,-7.0625,36.51171875
952,-0.444091796875,0.395263671875,-0.39990234375,-27.75,-292.9375,-10.625,36.51171875
954,-0.444091796875,0.395263671875,-0.39990234375,-27.75,-292.9375,-10.625,36.51171875
956,-0.39990234375,0.375732421875,-0.372314453125,-32.6875,-302.5,-14.5625,36.51171875
958,-0.39990234375,0.375732421875,-0.372314453125,-32.6875,-302.5,-14.5625,36.51171875
960,-0.35302734375,0.353515625,-0.3515625,-36.25,-313.1875,-18.3125,36.51171875
962,-0.35302734375,0.353515625,-0.3515625,-36.25,-313.1875,-18.3125,36.51171875
964,-0.35302734375,0.353515625,-0.3515625,-38.6875,-322.6875,-21.25,36.51171875
966,-0.306884765625,0.324462890625,-0.318115234375,-38.6875,-322.6875,-21.25,36.51171875
968,-0.306884765625,0.324462890625,-0.318115234375,-38.6875,-322.6875,-21.25,36.51171875
970,-0.260986328125,0.29052734375,-0.257080078125,-38.625,-329.0625,-22.5,36.51171875
972,-0.260986328125,0.29052734375,-0.257080078125,-38.625,-329.0625,-22.5,36.51171875
974,-0.216064453125,0.251708984375,-0.16015625,-36.125,-332.0625,-22.3125,36.546875
976,-0.216064453125,0.251708984375,-0.16015625,-36.125,-332.0625,-22.3125,36.546875
978,-0.200927734375,0.236572265625,-0.02001953125,-31.8125,-334.125,-22.125,36.546875
980,-0.200927734375,0.236572265625,-0.02001953125,-31.8125,-334.125,-22.125,36.546875
982,-0.200927734375,0.236572265625,-0.02001953125,-31.8125,-334.125,-22.125,36.546875
984,-0.219482421875,0.244873046875,0.143310546875,-26.75,-333.875,-21.875,36.546875
986,-0.219482421875,0.244873046875,0.143310546875,-26.75,-333.875,-21.875,36.546875
987,-0.245361328125,0.26220703125,0.29443359375,-23.5625,-330.875,-20.75,36.546875
989,-0.245361328125,0.26220703125,0.29443359375,-23.5625,-330.875,-20.75,36.546875
992,-0.268798828125,0.265380859375,0.40771484375,-22.625,-326.5,-19.875,36.546875
994,-0.268798828125,0.265380859375,0.40771484375,-22.625,-326.5,-19.875,36.546875
996,-0.2841796875,0.260009765625,0.477294921875,-22.4375,-322.625,-19.4375,36.546875
998,-0.2841796875,0.260009765625,0.477294921875,-22.4375,-322.625,-19.4375,36.546875
1000,-0.298583984375,0.2548828125,0.509765625,-21.875,-320.0,-20.4375,36.546875
1002,-0.298583984375,0.2548828125,0.509765625,-21.875,-320.0,-20.4375,36.546875
1004,-0.298583984375,0.2548828125,0.509765625,-21.875,-320.0,-20.4375,36.546875
1005,-0.289794921875,0.241943359375,0.535400390625,-20.0625,-317.5625,-22.625,36.546875
1008,-0.289794921875,0.241943359375,0.535400390625,-20.0625,-317.5625,-22.625,36.546875
1010,-0.266845703125,0.22705078125,0.546875,-17.875,-313.9375,-24.125,36.546875
1011,-0.266845703125,0.22705078125,0.546875,-17.875,-313.9375,-24.125,36.546875
1014,-0.24169921875,0.208740234375,0.543701171875,-13.6875,-309.4375,-23.875,36.546875
1016,-0.24169921875,0.208740234375,0.543701171875,-13.6875,-309.4375,-23.875,36.546875
1018,-0.209716796875,0.18603515625,0.5419921875,-7.625,-305.1875,-21.4375,36.546875
1020,-0.209716796875,0.18603515625,0.5419921875,-7.625,-305.1875,-21.4375,36.546875
1022,-0.209716796875,0.18603515625,0.53271484375,-1.375,-302.0625,-17.375,36.546875
1024,-0.185302734375,0.1513671875,0.53271484375,-1.375,-302.0625,-17.375,36.546875
1026,-0.185302734375,0.1513671875,0.53271484375,-1.375,-302.0625,-17.375,36.546875
1028,-0.17919921875,0.114013671875,0.525634765625,5.9375,-301.1875,-13.4375,36.546875
1029,-0.17919921875,0.114013671875,0.525634765625,5.9375,-301.1875,-13.4375,36.546875
1031,-0.173828125,0.088134765625,0.531494140625,13.6875,-301.375,-9.5625,36.546875
1033,-0.173828125,0.088134765625,0.531494140625,13.6875,-301.375,-9.5625,36.546875
1036,-0.1650390625,0.071533203125,0.55419921875,19.9375,-301.25,-5.5625,36.546875
1038,-0.1650390625,0.071533203125,0.55419921875,19.9375,-301.25,-5.5625,36.546875
1039,-0.1533203125,0.056884765625,0.578125,24.1875,-300.5625,-1.0,36.546875
1041,-0.1533203125,0.056884765625,0.578125,24.1875,-300.5625,-1.0,36.546875
1043,-0.1533203125,0.056884765625,0.578125,24.1875,-300.5625,-1.0,36.546875
1045,-0.140869140625,0.03271484375,0.5966796875,25.8125,-297.9375,3.5625,36.546875
1047,-0.140869140625,0.03271484375,0.5966796875,25.8125,-297.9375,3.5625,36.546875
1050,-0.131103515625,0.009521484375,0.615478515625,25.125,-293.8125,7.4375,36.546875
1051,-0.131103515625,0.009521484375,0.615478515625,25.125,-293.8125,7.4375,36.546875
1053,-0.118408203125,-0.02197265625,0.65283203125,23.5625,-288.9375,10.75,36.546875
1055,-0.118408203125,-0.02197265625,0.65283203125,23.5625,-288.9375,10.75,36.546875
1058,-0.121337890625,-0.070556640625,0.728759765625,22.75,-281.1875,13.5625,36.546875
1060,-0.121337890625,-0.070556640625,0.728759765625,22.75,-281.1875,13.5625,36.546875
1061,-0.121337890625,-0.070556640625,0.728759765625,23.4375,-271.125,16.375,36.546875
1063,-0.17919921875,-0.102294921875,0.8544921875,23.4375,-271.125,16.375,36.546875
1065,-0.17919921875,-0.102294921875,0.8544921875,23.4375,-271.125,16.375,36.546875
1067,-0.278076171875,-0.095703125,0.982177734375,24.625,-258.1875,20.0625,36.546875
1069,-0.278076171875,-0.095703125,0.982177734375,24.625,-258.1875,20.0625,36.546875
1071,-0.379638671875,-0.061767578125,1.10205078125,21.625,-241.625,24.5,36.546875
1073,-0.379638671875,-0.061767578125,1.10205078125,21.625,-241.625,24.5,36.546875
1075,-0.379638671875,-0.061767578125,1.10205078125,14.75,-222.3125,27.8125,36.546875
1077,-0.463134765625,-0.01806640625,1.208740234375,14.75,-222.3125,27.8125,36.546875
1079,-0.463134765625,-0.01806640625,1.271240234375,5.625,-201.625,29.125,36.546875
1081,-0.525634765625,0.04296875,1.30615234375,5.625,-201.625,29.125,36.546875
1083,-0.525634765625,0.04296875,1.30615234375,5.625,-201.625,29.125,36.546875
1085,-0.56982421875,0.1123046875,1.381591796875,-5.125,-179.375,28.6875,36.546875
1087,-0.56982421875,0.1123046875,1.381591796875,-5.125,-179.375,28.6875,36.546875
1089,-0.592041015625,0.189208984375,1.417236328125,-15.5625,-155.75,26.0625,36.546875
1090,-0.592041015625,0.189208984375,1.417236328125,-15.5625,-155.75,26.0625,36.546875
1092,-0.592041015625,0.189208984375,1.417236328125,-26.5,-132.0625,20.4375,36.546875
1094,-0.58544921875,0.274658203125,1.420654296875,-26.5,-132.0625,20.4375,36.546875
1096,-0.58544921875,0.274658203125,1.420654296875,-26.5,-132.0625,20.4375,36.546875
1098,-0.546875,0.35107421875,1.40185546875,-36.125,-109.375,11.4375,36.546875
1101,-0.546875,0.35107421875,1.40185546875,-36.125,-109.375,11.4375,36.546875
1102,-0.489013671875,0.404541015625,1.366455078125,-41.6875,-88.625,0.3125,36.546875
1105,-0.489013671875,0.404541015625,1.366455078125,-41.6875,-88.625,0.3125,36.546875
1106,-0.42822265625,0.4306640625,1.3115234375,-41.3125,-71.4375,-11.125,36.546875
1108,-0.42822265625,0.4306640625,1.3115234375,-41.3125,-71.4375,-11.125,36.546875
1110,-0.42822265625,0.4306640625,1.3115234375,-33.6875,-58.6875,-21.0,36.546875
1112,-0.3828125,0.424560546875,1.25048828125,-33.6875,-58.6875,-21.0,36.546875
1114,-0.3828125,0.424560546875,1.25048828125,-33.6875,-58.6875,-21.0,36.546875
1116,-0.352783203125,0.394287109375,1.19873046875,-19.6875,-49.8125,-27.875,36.55859375
1118,-0.352783203125,0.394287109375,1.19873046875,-19.6875,-49.8125,-27.875,36.55859375
1120,-0.338623046875,0.35107421875,1.155517578125,-1.625,-45.1875,-30.8125,36.55859375
1122,-0.338623046875,0.35107421875,1.155517578125,-1.625,-45.1875,-30.8125,36.55859375
1124,-0.3330078125,0.2978515625,1.11572265625,17.75,-44.6875,-29.75,36.55859375
1126,-0.3330078125,0.2978515625,1.11572265625,17.75,-44.6875,-29.75,36.55859375
1128,-0.3369140625,0.234619140625,1.078125,36.3125,-46.5,-25.3125,36.55859375
1130,-0.3369140625,0.234619140625,1.078125,36.3125,-46.5,-25.3125,36.55859375
1132,-0.3369140625,0.234619140625,1.078125,36.3125,-46.5,-25.3125,36.55859375
1134,-0.35546875,0.166015625,1.048095703125,53.6875,-49.125,-18.375,36.55859375
1136,-0.35546875,0.166015625,1.048095703125,53.6875,-49.125,-18.375,36.55859375
1138,-0.3798828125,0.10009765625,1.028564453125,68.25,-50.75,-9.9375,36.55859375
1140,-0.3798828125,0.10009765625,1.028564453125,68.25,-50.75,-9.9375,36.55859375
1142,-0.409912109375,0.0419921875,1.0302734375,79.125,-51.0,-1.125,36.55859375
1144,-0.409912109375,0.0419921875,1.0302734375,79.125,-51.0,-1.125,36.55859375
1146,-0.4453125,-0.007080078125,1.048095703125,84.25,-49.9375,7.4375,36.55859375
1148,-0.4453125,-0.007080078125,1.048095703125,84.25,-49.9375,7.4375,36.55859375
1150,-0.4453125,-0.007080078125,1.048095703125,84.25,-47.0625,14.875,36.55859375
1152,-0.489501953125,-0.0439453125,1.0751953125,82.8125,-47.0625,14.875,36.55859375
1154,-0.489501953125,-0.0439453125,1.0751953125,82.8125,-47.0625,14.875,36.55859375
1156,-0.538330078125,-0.06982421875,1.106689453125,75.5625,-42.5,20.875,36.55859375
1158,-0.538330078125,-0.06982421875,1.106689453125,75.5625,-42.5,20.875,36.55859375
1160,-0.588623046875,-0.080810546875,1.1376953125,63.5,-35.8125,25.3125,36.55859375
1161,-0.588623046875,-0.080810546875,1.1376953125,63.5,-35.8125,25.3125,36.55859375
1163,-0.588623046875,-0.080810546875,1.1376953125,47.0,-26.8125,27.875,36.55859375
1166,-0.63134765625,-0.068603515625,1.16162109375,47.0,-26.8125,27.875,36.55859375
1168,-0.63134765625,-0.006103515625,1.173828125,27.3125,-16.3125,28.625,36.55859375
1170,-0.661376953125,-0.03564453125,1.173828125,27.3125,-16.3125,28.625,36.55859375
1172,-0.661376953125,-0.03564453125,1.173828125,27.3125,-16.3125,28.625,36.55859375
1174,-0.675537109375,0.013427734375,1.170166015625,6.25,-4.75,27.0,36.55859375
1176,-0.675537109375,0.013427734375,1.170166015625,6.25,-4.75,27.0,36.55859375
1178,-0.677001953125,0.066650390625,1.152099609375,-14.9375,7.375,22.875,36.55859375
1180,-0.677001953125,0.066650390625,1.152099609375,-14.9375,7.375,22.875,36.55859375
1182,-0.674072265625,0.114990234375,1.1201171875,-34.875,18.8125,17.5625,36.55859375
1184,-0.674072265625,0.114990234375,1.1201171875,-34.875,18.8125,17.5625,36.55859375
1185,-0.674072265625,0.114990234375,1.1201171875,-34.875,29.375,11.6875,36.55859375
1188,-0.677490234375,0.152099609375,1.076904296875,-51.8125,29.375,11.6875,36.55859375
1190,-0.677490234375,0.152099609375,1.014404296875,-64.375,38.5,6.0625,36.55859375
1192,-0.679443359375,0.182373046875,1.0283203125,-64.375,38.5,6.0625,36.55859375
1194,-0.679443359375,0.182373046875,1.0283203125,-64.375,38.5,6.0625,36.55859375
1196,-0.6767578125,0.21337890625,0.984130859375,-71.75,45.875,1.8125,36.55859375
1198,-0.6767578125,0.21337890625,0.984130859375,-71.75,45.875,1.8125,36.55859375
1200,-0.671142578125,0.244873046875,0.94287109375,-74.125,51.625,-0.8125,36.55859375
1202,-0.671142578125,0.244873046875,0.94287109375,-74.125,51.625,-0.8125,36.55859375
1204,-0.666015625,0.274658203125,0.9072265625,-72.3125,56.3125,-1.8125,36.55859375
1206,-0.666015625,0.274658203125,0.9072265625,-72.3125,56.3125,-1.8125,36.55859375
1208,-0.666015625,0.274658203125,0.9072265625,-72.3125,60.0,-1.1875,36.55859375
1210,-0.66650390625,0.30078125,0.8779296875,-66.5625,60.0,-1.1875,36.55859375
1212,-0.66650390625,0.30078125,0.8779296875,-66.5625,60.0,-1.1875,36.55859375
1214,-0.675048828125,0.3251953125,0.851318359375,-57.6875,62.625,0.25,36.55859375
1216,-0.675048828125,0.3251953125,0.851318359375,-57.6875,62.625,0.25,36.55859375
1218,-0.6875,0.351806640625,0.827880859375,-46.25,64.5625,2.375,36.55859375
1220,-0.6875,0.351806640625,0.827880859375,-46.25,64.5625,2.375,36.55859375
1222,-0.697021484375,0.36279296875,0.8115234375,-34.25,66.125,5.3125,36.55859375
1223,-0.697021484375,0.36279296875,0.8115234375,-34.25,66.125,5.3125,36.55859375
1225,-0.697021484375,0.36279296875,0.8115234375,-18.25,67.3125,7.9375,36.55859375
1227,-0.71240234375,0.3623046875,0.799072265625,-23.0,67.3125,7.9375,36.55859375
1229,-0.71240234375,0.3623046875,0.799072265625,-23.0,67.3125,7.9375,36.55859375
1232,-0.7373046875,0.361083984375,0.79150390625,-12.5625,68.75,10.4375,36.55859375
1233,-0.7373046875,0.361083984375,0.79150390625,-12.5625,68.75,10.4375,36.55859375
1235,-0.76171875,0.350341796875,0.78369140625,-4.5625,70.75,12.25,36.55859375
1237,-0.76171875,0.350341796875,0.78369140625,-4.5625,70.75,12.25,36.55859375
1239,-0.781005859375,0.330810546875,0.772216796875,0.5625,73.3125,13.4375,36.55859375
1241,-0.781005859375,0.330810546875,0.772216796875,0.5625,73.3125,13.4375,36.55859375
1243,-0.781005859375,0.330810546875,0.772216796875,0.5625,73.3125,14.375,36.55859375
1246,-0.791015625,0.30810546875,0.758544921875,2.8125,76.3125,14.375,36.55859375
1248,-0.791015625,0.30810546875,0.758544921875,2.3125,79.625,14.625,36.55859375
1249,-0.79736328125,0.286865234375,0.74072265625,2.3125,79.625,14.625,36.55859375
1251,-0.79736328125,0.286865234375,0.74072265625,2.3125,79.625,14.625,36.55859375
1254,-0.802978515625,0.271484375,0.7236328125,-0.25,83.0625,14.75,36.55859375
1256,-0.802978515625,0.271484375,0.7236328125,-0.25,83.0625,14.75,36.55859375
1257,-0.80224609375,0.257080078125,0.7021484375,-4.3125,86.1875,15.125,36.53125
1259,-0.80224609375,0.257080078125,0.7021484375,-4.3125,86.1875,15.125,36.53125
1261,-0.796875,0.24169921875,0.677001953125,-8.875,88.3125,15.5,36.53125
1263,-0.796875,0.24169921875,0.677001953125,-8.875,88.3125,15.5,36.53125
1265,-0.796875,0.24169921875,0.677001953125,-8.875,88.3125,15.5,36.53125
1267,-0.7900390625,0.228515625,0.66357421875,-13.0625,89.875,15.75,36.53125
1269,-0.7900390625,0.228515625,0.66357421875,-13.0625,89.875,15.75,36.53125
1271,-0.7900390625,0.223388671875,0.66455078125,-16.0,91.375,16.4375,36.53125
1273,-0.7900390625,0.223388671875,0.66455078125,-16.0,91.375,16.4375,36.53125
1275,-0.79150390625,0.2255859375,0.668212890625,-18.1875,92.75,17.8125,36.53125
1277,-0.79150390625,0.2255859375,0.668212890625,-18.1875,92.75,17.8125,36.53125
1279,-0.787353515625,0.2353515625,0.6796875,-20.1875,94.1875,19.375,36.53125
1281,-0.787353515625,0.2353515625,0.6796875,-20.1875,94.1875,19.375,36.53125
1283,-0.787353515625,0.2353515625,0.6796875,-20.1875,94.1875,19.375,36.53125
1285,-0.781494140625,0.25537109375,0.695068359375,-21.4375,95.875,20.8125,36.53125
1286,-0.781494140625,0.25537109375,0.695068359375,-21.4375,95.875,20.8125,36.53125
1288,-0.77734375,0.281982421875,0.70849609375,-22.0,98.125,21.6875,36.53125
1290,-0.77734375,0.281982421875,0.70849609375,-22.0,98.125,21.6875,36.53125
1292,-0.78076171875,0.310791015625,0.72265625,-21.4375,100.6875,21.8125,36.53125
1294,-0.78076171875,0.310791015625,0.72265625,-21.4375,100.6875,21.8125,36.53125
1296,-0.78076171875,0.310791015625,0.72265625,-21.4375,100.6875,21.8125,36.53125
1298,-0.78759765625,0.34228515625,0.73876953125,-19.9375,103.8125,21.375,36.53125
1300,-0.78759765625,0.34228515625,0.73876953125,-19.9375,103.8125,21.375,36.53125
1302,-0.79345703125,0.364501953125,0.747314453125,-18.125,106.8125,20.1875,36.53125
1304,-0.79345703125,0.364501953125,0.747314453125,-18.125,106.8125,20.1875,36.53125
1306,-0.799072265625,0.3759765625,0.75146484375,-15.875,110.25,18.5625,36.53125
1308,-0.799072265625,0.3759765625,0.75146484375,-15.875,110.25,18.5625,36.53125
1310,-0.802490234375,0.383544921875,0.747802734375,-12.9375,113.8125,16.6875,36.53125
1312,-0.802490234375,0.383544921875,0.747802734375,-12.9375,113.8125,16.6875,36.53125
1314,-0.802490234375,0.3779296875,0.734130859375,-9.9375,116.75,15.25,36.53125
1316,-0.803466796875,0.3779296875,0.734130859375,-9.9375,116.75,15.25,36.53125
1318,-0.803466796875,0.3779296875,0.734130859375,-9.9375,116.75,15.25,36.53125
1320,-0.8046875,0.3681640625,0.718505859375,-6.0625,119.25,14.0625,36.53125
1322,-0.8046875,0.3681640625,0.718505859375,-6.0625,119.25,14.0625,36.53125
1324,-0.815673828125,0.361572265625,0.7021484375,-1.3125,121.5625,12.9375,36.53125
1326,-0.815673828125,0.361572265625,0.7021484375,-1.3125,121.5625,12.9375,36.53125
1328,-0.8388671875,0.345458984375,0.69384765625,4.0,123.9375,12.0625,36.53125
1330,-0.8388671875,0.345458984375,0.69384765625,4.0,123.9375,12.0625,36.53125
1332,-0.869384765625,0.31103515625,0.7021484375,9.3125,126.8125,11.9375,36.53125
1334,-0.869384765625,0.31103515625,0.7021484375,9.3125,126.8125,11.9375,36.53125
1336,-0.869384765625,0.31103515625,0.7021484375,9.3125,126.8125,11.9375,36.53125
1338,-0.902099609375,0.278076171875,0.70947265625,13.3125,130.75,12.625,36.53125
1340,-0.902099609375,0.278076171875,0.70947265625,13.3125,130.75,12.625,36.53125
1342,-0.92138671875,0.246337890625,0.708251953125,15.625,135.8125,13.6875,36.53125
1344,-0.92138671875,0.246337890625,0.708251953125,15.625,135.8125,13.6875,36.53125
1346,-0.925537109375,0.22314453125,0.698974609375,15.8125,141.375,15.1875,36.53125
1348,-0.925537109375,0.22314453125,0.698974609375,15.8125,141.375,15.1875,36.53125
1350,-0.917236328125,0.20654296875,0.685546875,14.625,147.25,16.3125,36.53125
1352,-0.917236328125,0.20654296875,0.685546875,14.625,147.25,16.3125,36.53125
1354,-0.917236328125,0.20654296875,0.685546875,14.625,147.25,16.3125,36.53125
1355,-0.899658203125,0.2021484375,0.66552734375,12.5,153.5625,17.125,36.53125
1357,-0.899658203125,0.2021484375,0.66552734375,12.5,153.5625,17.125,36.53125
1359,-0.874267578125,0.212646484375,0.640869140625,9.375,159.875,17.8125,36.53125
1361,-0.874267578125,0.212646484375,0.640869140625,9.375,159.875,17.8125,36.53125
1363,-0.841796875,0.2294921875,0.60888671875,6.0625,165.75,18.3125,36.53125
1365,-0.841796875,0.2294921875,0.60888671875,6.0625,165.75,18.3125,36.53125
1367,-0.806884765625,0.25439453125,0.57666015625,3.125,170.375,18.375,36.53125
1369,-0.806884765625,0.25439453125,0.57666015625,3.125,170.375,18.375,36.53125
1371,-0.806884765625,0.25439453125,0.57666015625,3.125,170.375,18.375,36.53125
1373,-0.76708984375,0.283203125,0.5390625,1.0625,173.5,17.9375,36.53125
1375,-0.76708984375,0.283203125,0.5390625,1.0625,173.5,17.9375,36.53125
1377,-0.72509765625,0.302734375,0.5,-0.4375,175.3125,17.125,36.53125
1379,-0.72509765625,0.302734375,0.5,-0.4375,175.3125,17.125,36.53125
1381,-0.681884765625,0.312255859375,0.4599609375,-1.5625,175.5,16.0625,36.53125
1382,-0.681884765625,0.312255859375,0.4599609375,-1.5625,175.5,16.0625,36.53125
1384,-0.681884765625,0.312255859375,0.4599609375,-1.5625,175.5,16.0625,36.53125
1386,-0.651123046875,0.314697265625,0.4208984375,-1.625,174.125,15.125,36.53125
1388,-0.651123046875,0.314697265625,0.4208984375,-1.625,174.125,15.125,36.53125
1391,-0.64111328125,0.31494140625,0.384521484375,-0.6875,171.25,14.0625,36.53125
1393,-0.64111328125,0.31494140625,0.384521484375,-0.6875,171.25,14.0625,36.53125
1395,-0.642822265625,0.318359375,0.349853515625,0.375,167.5,13.5,36.53125
1397,-0.642822265625,0.318359375,0.349853515625,0.375,167.5,13.5,36.53125
1398,-0.65185546875,0.324462890625,0.31982421875,0.9375,163.625,13.125,36.5625
1400,-0.65185546875,0.324462890625,0.31982421875,0.9375,163.625,13.125,36.5625
1402,-0.65185546875,0.324462890625,0.31982421875,0.9375,163.625,13.125,36.5625
1404,-0.666259765625,0.322021484375,0.30224609375,1.1875,160.4375,12.625,36.5625
1406,-0.666259765625,0.322021484375,0.30224609375,1.1875,160.4375,12.625,36.5625
1408,-0.69140625,0.313232421875,0.289794921875,1.5,157.9375,11.375,36.5625
1410,-0.69140625,0.313232421875,0.289794921875,1.5,157.9375,11.375,36.5625
1412,-0.730224609375,0.304931640625,0.284423828125,2.0625,156.5625,9.8125,36.5625
1414,-0.730224609375,0.304931640625,0.284423828125,2.0625,156.5625,9.8125,36.5625
1416,-0.767822265625,0.2890625,0.282470703125,2.0625,156.0625,8.25,36.5625
1418,-0.767822265625,0.2890625,0.282470703125,2.0625,156.0625,8.25,36.5625
1420,-0.767822265625,0.2890625,0.282470703125,2.0625,156.0625,8.25,36.5625
1422,-0.802001953125,0.267822265625,0.28173828125,0.375,156.875,7.1875,36.5625
1424,-0.802001953125,0.267822265625,0.28173828125,0.375,156.875,7.1875,36.5625
1426,-0.83935546875,0.243896484375,0.2607421875,-2.6875,158.875,7.0625,36.5625
1428,-0.83935546875,0.243896484375,0.2607421875,-2.6875,158.875,7.0625,36.5625
1430,-0.865234375,0.2275390625,0.226318359375,-5.375,161.25,7.875,36.5625
1432,-0.865234375,0.2275390625,0.226318359375,-5.375,161.25,7.875,36.5625
1434,-0.865234375,0.2275390625,0.19384765625,-7.5625,163.9375,9.75,36.5625
1436,-0.865478515625,0.220703125,0.19384765625,-7.5625,163.9375,9.75,36.5625
1438,-0.865478515625,0.220703125,0.19384765625,-7.5625,163.9375,12.4375,36.5625
1440,-0.84765625,0.22314453125,0.157470703125,-9.375,166.9375,12.4375,36.5625
1442,-0.84765625,0.22314453125,0.157470703125,-9.375,166.9375,12.4375,36.5625
1444,-0.82666015625,0.232666015625,0.1123046875,-10.3125,168.9375,15.5625,36.5625
1446,-0.82666015625,0.232666015625,0.1123046875,-10.3125,168.9375,15.5625,36.5625
1448,-0.802001953125,0.253662109375,0.064453125,-10.125,169.5,19.0625,36.5625
1450,-0.802001953125,0.253662109375,0.064453125,-10.125,169.5,19.0625,36.5625
1452,-0.77392578125,0.2763671875,0.020263671875,-8.0625,168.3125,22.5,36.5625
1454,-0.77392578125,0.2763671875,0.020263671875,-8.0625,168.3125,22.5,36.5625
1456,-0.750244140625,0.303466796875,-0.01904296875,-4.3125,165.8125,26.0,36.5625
1458,-0.750244140625,0.303466796875,-0.01904296875,-4.3125,165.8125,26.0,36.5625
1460,-0.750244140625,0.303466796875,-0.01904296875,-0.25,161.875,29.25,36.5625
1462,-0.73046875,0.33740234375,-0.056396484375,-0.25,161.875,29.25,36.5625
1464,-0.73046875,0.33740234375,-0.056396484375,-0.25,161.875,29.25,36.5625
1466,-0.711669921875,0.37255859375,-0.088623046875,3.6875,156.6875,31.8125,36.5625
1468,-0.711669921875,0.37255859375,-0.088623046875,3.6875,156.6875,31.8125,36.5625
1470,-0.688720703125,0.4052734375,-0.107421875,7.375,151.125,33.875,36.5625
1472,-0.688720703125,0.4052734375,-0.107421875,7.375,151.125,33.875,36.5625
1474,-0.669677734375,0.43017578125,-0.1083984375,11.0,146.1875,35.4375,36.5625
1476,-0.669677734375,0.43017578125,-0.1083984375,11.0,146.1875,35.4375,36.5625
1478,-0.669677734375,0.43017578125,-0.1083984375,11.0,146.1875,35.4375,36.5625
1480,-0.669921875,0.450439453125,-0.09765625,15.0625,142.0625,36.125,36.5625
1482,-0.669921875,0.450439453125,-0.09765625,15.0625,142.0625,36.125,36.5625
1483,-0.6865234375,0.4697265625,-0.078857421875,18.5,139.125,35.5,36.5625
1486,-0.6865234375,0.4697265625,-0.078857421875,18.5,139.125,35.5,36.5625
1488,-0.70556640625,0.480712890625,-0.054443359375,19.5,137.25,33.3125,36.5625
1490,-0.70556640625,0.480712890625,-0.054443359375,19.5,137.25,33.3125,36.5625
1492,-0.72119140625,0.48681640625,-0.028564453125,18.375,136.6875,29.5,36.5625
1494,-0.72119140625,0.48681640625,-0.028564453125,18.375,136.6875,29.5,36.5625
1496,-0.72119140625,0.48681640625,0.033935546875,16.5,138.3125,25.125,36.5625
1498,-0.733642578125,0.477783203125,0.008056640625,16.5,138.3125,25.125,36.5625
1500,-0.733642578125,0.477783203125,0.008056640625,16.5,138.3125,25.125,36.5625
1501,-0.752685546875,0.45166015625,0.061279296875,14.875,142.6875,20.5625,36.5625
1503,-0.752685546875,0.45166015625,0.061279296875,14.875,142.6875,20.5625,36.5625
1505,-0.78466796875,0.424560546875,0.11572265625,13.25,149.8125,16.125,36.5625
1507,-0.78466796875,0.424560546875,0.11572265625,13.25,149.8125,16.125,36.5625
1510,-0.824462890625,0.404541015625,0.1533203125,10.4375,158.0625,11.875,36.5625
1512,-0.824462890625,0.404541015625,0.1533203125,10.4375,158.0625,11.875,36.5625
1514,-0.849365234375,0.397216796875,0.1669921875,5.9375,166.375,7.875,36.5625
1516,-0.849365234375,0.397216796875,0.1669921875,5.9375,166.375,7.875,36.5625
1517,-0.849365234375,0.397216796875,0.1669921875,5.9375,166.375,7.875,36.5625
1519,-0.854736328125,0.389892578125,0.152587890625,0.9375,174.1875,4.8125,36.5625
1521,-0.854736328125,0.389892578125,0.152587890625,0.9375,174.1875,4.8125,36.5625
1523,-0.8427734375,0.375244140625,0.11083984375,-3.375,181.8125,3.125,36.5625
1525,-0.8427734375,0.375244140625,0.11083984375,-3.375,181.8125,3.125,36.5625
1527,-0.815185546875,0.36376953125,0.04833984375,-5.375,188.375,3.1875,36.5625
1529,-0.815185546875,0.36376953125,0.04833984375,-5.375,188.375,3.1875,36.5625
1531,-0.779296875,0.35986328125,-0.02294921875,-5.125,192.9375,4.625,36.5625
1533,-0.779296875,0.35986328125,-0.02294921875,-5.125,192.9375,4.625,36.5625
1535,-0.779296875,0.35986328125,-0.02294921875,-5.125,192.9375,4.625,36.5625
1537,-0.7509765625,0.3515625,-0.095458984375,-2.625,195.0,7.25,36.5625
1539,-0.7509765625,0.3515625,-0.095458984375,-2.625,195.0,7.25,36.5625
1541,-0.730224609375,0.35498046875,-0.16357421875,1.9375,194.375,10.9375,36.546875
1543,-0.730224609375,0.35498046875,-0.16357421875,1.9375,194.375,10.9375,36.546875
1545,-0.71728515625,0.3564453125,-0.22705078125,8.125,190.6875,14.875,36.546875
1547,-0.71728515625,0.3564453125,-0.22705078125,8.125,190.6875,14.875,36.546875
1549,-0.71728515625,0.3564453125,-0.22705078125,8.125,190.6875,14.875,36.546875
1550,-0.7109375,0.361328125,-0.283935546875,15.8125,185.0,19.25,36.546875
1552,-0.7109375,0.361328125,-0.283935546875,15.8125,185.0,19.25,36.546875
1554,-0.70654296875,0.37109375,-0.325439453125,24.3125,178.375,23.875,36.546875
1557,-0.70654296875,0.37109375,-0.325439453125,24.3125,178.375,23.875,36.546875
1559,-0.70361328125,0.3798828125,-0.345458984375,33.1875,172.5625,28.625,36.546875
1561,-0.70361328125,0.3798828125,-0.345458984375,33.1875,172.5625,28.625,36.546875
1562,-0.709228515625,0.382568359375,-0.339599609375,41.3125,168.9375,33.25,36.546875
1564,-0.709228515625,0.382568359375,-0.339599609375,41.3125,168.9375,33.25,36.546875
1566,-0.709228515625,0.382568359375,-0.339599609375,41.3125,168.9375,33.25,36.546875
1568,-0.720458984375,0.39306640625,-0.30810546875,46.6875,167.1875,37.0,36.546875
1570,-0.720458984375,0.39306640625,-0.30810546875,46.6875,167.1875,37.0,36.546875
1572,-0.73046875,0.4130859375,-0.266845703125,49.0625,167.25,39.4375,36.546875
1574,-0.73046875,0.4130859375,-0.266845703125,49.0625,167.25,39.4375,36.546875
1576,-0.732177734375,0.44091796875,-0.225341796875,48.1875,168.6875,40.0,36.546875
1578,-0.732177734375,0.44091796875,-0.225341796875,48.1875,168.6875,40.0,36.546875
1580,-0.729248046875,0.46923828125,-0.18896484375,43.5,171.5,38.4375,36.546875
1582,-0.729248046875,0.46923828125,-0.18896484375,43.5,171.5,38.4375,36.546875
1584,-0.729248046875,0.46923828125,-0.18896484375,43.5,171.5,38.4375,36.546875
1586,-0.722412109375,0.486328125,-0.1611328125,36.625,174.0,35.0625,36.546875
1588,-0.722412109375,0.486328125,-0.1611328125,36.625,174.0,35.0625,36.546875
1590,-0.70654296875,0.50244140625,-0.145751953125,29.75,177.1875,30.3125,36.546875
1592,-0.70654296875,0.50244140625,-0.145751953125,29.75,177.1875,30.3125,36.546875
1594,-0.7001953125,0.5205078125,-0.131591796875,23.6875,183.4375,24.75,36.546875
1596,-0.7001953125,0.5205078125,-0.131591796875,23.6875,183.4375,24.75,36.546875
1598,-0.69580078125,0.53173828125,-0.127685546875,17.6875,191.3125,19.3125,36.546875
1600,-0.69580078125,0.53173828125,-0.127685546875,17.6875,191.3125,19.3125,36.546875
1602,-0.677001953125,0.533935546875,-0.142333984375,12.4375,198.8125,14.75,36.546875
1604,-0.677001953125,0.533935546875,-0.142333984375,12.4375,198.8125,14.75,36.546875
1606,-0.677001953125,0.533935546875,-0.142333984375,12.4375,198.8125,14.75,36.546875
1608,-0.653564453125,0.523681640625,-0.169921875,9.0625,205.25,11.6875,36.546875
1610,-0.653564453125,0.523681640625,-0.169921875,9.0625,205.25,11.6875,36.546875
1612,-0.63427734375,0.511474609375,-0.20458984375,8.8125,209.125,10.375,36.546875
1614,-0.63427734375,0.511474609375,-0.20458984375,8.8125,209.125,10.375,36.546875
1616,-0.615966796875,0.505126953125,-0.240234375,11.875,209.1875,10.625,36.546875
1617,-0.615966796875,0.505126953125,-0.240234375,11.875,209.1875,10.625,36.546875
1619,-0.615966796875,0.505126953125,-0.240234375,11.875,209.1875,10.625,36.546875
1622,-0.596435546875,0.494384765625,-0.278564453125,18.0625,205.375,12.0625,36.546875
1624,-0.596435546875,0.494384765625,-0.278564453125,18.0625,205.375,12.0625,36.546875
1626,-0.58056640625,0.48095703125,-0.335205078125,26.375,198.1875,14.5,36.546875
1628,-0.58056640625,0.48095703125,-0.335205078125,26.375,198.1875,14.5,36.546875
1630,-0.572265625,0.468017578125,-0.395263671875,37.6875,186.6875,17.25,36.546875
1631,-0.572265625,0.468017578125,-0.395263671875,37.6875,186.6875,17.25,36.546875
1633,-0.56689453125,0.45751953125,-0.4599609375,53.0,169.375,20.75,36.546875
1635,-0.56689453125,0.45751953125,-0.4599609375,53.0,169.375,20.75,36.546875
1637,-0.56689453125,0.45751953125,-0.4599609375,53.0,169.375,20.75,36.546875
1639,-0.560302734375,0.450927734375,-0.5498046875,68.25,149.4375,24.5625,36.546875
1641,-0.560302734375,0.450927734375,-0.5498046875,68.25,149.4375,24.5625,36.546875
1643,-0.55419921875,0.433837890625,-0.640869140625,80.6875,130.8125,27.9375,36.546875
1645,-0.55419921875,0.433837890625,-0.640869140625,80.6875,130.8125,27.9375,36.546875
1647,-0.548828125,0.401123046875,-0.71142578125,90.1875,114.375,30.6875,36.546875
1650,-0.548828125,0.401123046875,-0.71142578125,90.1875,114.375,30.6875,36.546875
1652,-0.54833984375,0.370361328125,-0.757080078125,95.25,101.25,31.75,36.546875
1654,-0.54833984375,0.370361328125,-0.757080078125,95.25,101.25,31.75,36.546875
1656,-0.5595703125,0.3623046875,-0.767333984375,96.25,91.375,30.0,36.546875
1657,-0.5595703125,0.3623046875,-0.767333984375,96.25,91.375,30.0,36.546875
1659,-0.5595703125,0.3623046875,-0.767333984375,96.25,91.375,30.0,36.546875
1661,-0.5625,0.362060546875,-0.762939453125,94.4375,84.25,26.125,36.546875
1663,-0.5625,0.362060546875,-0.762939453125,94.4375,84.25,26.125,36.546875
1665,-0.544189453125,0.3583984375,-0.805419921875,90.75,87.9375,18.5625,36.546875
1668,-0.544189453125,0.3583984375,-0.805419921875,90.75,87.9375,18.5625,36.546875
1670,-0.589599609375,0.358154296875,-0.887451171875,75.5625,111.625,7.8125,36.546875
1671,-0.589599609375,0.358154296875,-0.887451171875,75.5625,111.625,7.8125,36.546875
1673,-0.6767578125,0.363037109375,-0.8876953125,46.875,146.25,-2.0625,36.546875
1675,-0.6767578125,0.363037109375,-0.8876953125,46.875,146.25,-2.0625,36.546875
1677,-0.6767578125,0.363037109375,-0.8876953125,46.875,146.25,-2.0625,36.546875
1679,-0.721435546875,0.38720703125,-0.7685546875,19.4375,170.6875,-8.875,36.546875
1681,-0.721435546875,0.38720703125,-0.7685546875,19.4375,170.6875,-8.875,36.546875
1683,-0.692138671875,0.42578125,-0.658935546875,-0.4375,173.25,-11.125,36.546875
1685,-0.692138671875,0.42578125,-0.658935546875,-0.4375,173.25,-11.125,36.546875
1687,-0.648193359375,0.445068359375,-0.625,-16.9375,165.5625,-11.125,36.546875
1689,-0.648193359375,0.445068359375,-0.625,-16.9375,165.5625,-11.125,36.546875
1691,-0.6396484375,0.448974609375,-0.644287109375,-29.875,158.75,-12.0,36.546875
1693,-0.6396484375,0.448974609375,-0.644287109375,-29.875,158.75,-12.0,36.546875
1695,-0.6396484375,0.448974609375,-0.644287109375,-45.875,156.25,-12.75,36.546875
1697,-0.619873046875,0.462890625,-0.67333984375,-37.8125,156.25,-12.75,36.546875
1699,-0.619873046875,0.462890625,-0.67333984375,-37.8125,156.25,-12.75,36.546875
1701,-0.5576171875,0.4873046875,-0.701904296875,-41.25,156.625,-11.5,36.546875
1702,-0.5576171875,0.4873046875,-0.701904296875,-41.25,156.625,-11.5,36.546875
1704,-0.51953125,0.506591796875,-0.72412109375,-40.5625,156.25,-9.4375,36.546875
1706,-0.51953125,0.506591796875,-0.72412109375,-40.5625,156.25,-9.4375,36.546875
1708,-0.51953125,0.506591796875,-0.72412109375,-36.3125,153.3125,-7.8125,36.546875
1711,-0.495361328125,0.509765625,-0.73828125,-36.3125,153.3125,-7.8125,36.546875
1713,-0.495361328125,0.509765625,-0.73828125,-30.5,148.375,-6.6875,36.546875
1714,-0.4775390625,0.51220703125,-0.752685546875,-30.5,148.375,-6.6875,36.546875
1716,-0.4775390625,0.51220703125,-0.752685546875,-30.5,148.375,-6.6875,36.546875
1718,-0.464599609375,0.525146484375,-0.77880859375,-23.125,142.5,-5.625,36.546875
1720,-0.464599609375,0.525146484375,-0.77880859375,-23.125,142.5,-5.625,36.546875
1722,-0.4541015625,0.541259765625,-0.814453125,-13.6875,136.0625,-3.875,36.546875
1724,-0.4541015625,0.541259765625,-0.814453125,-13.6875,136.0625,-3.875,36.546875
1726,-0.4541015625,0.541259765625,-0.814453125,-3.8125,129.3125,-1.0625,36.546875
1728,-0.443359375,0.548828125,-0.84814453125,-3.8125,129.3125,-1.0625,36.546875
1730,-0.443359375,0.548828125,-0.84814453125,-3.8125,129.3125,-1.0625,36.546875
1732,-0.435791015625,0.55029296875,-0.869384765625,5.0625,122.5625,1.625,36.546875
1734,-0.435791015625,0.55029296875,-0.869384765625,5.0625,122.5625,1.625,36.546875
1736,-0.43310546875,0.552978515625,-0.87890625,12.25,115.5,3.5625,36.546875
1738,-0.43310546875,0.552978515625,-0.87890625,12.25,115.5,3.5625,36.546875
1740,-0.43017578125,0.5556640625,-0.88330078125,16.75,108.875,4.5625,36.546875
1742,-0.43017578125,0.5556640625,-0.88330078125,16.75,108.875,4.5625,36.546875
1744,-0.43017578125,0.5556640625,-0.888427734375,17.8125,102.875,4.5625,36.546875
1746,-0.428466796875,0.559326171875,-0.888427734375,17.8125,102.875,4.5625,36.546875
1749,-0.428466796875,0.559326171875,-0.888427734375,17.8125,102.875,4.5625,36.546875
1751,-0.420654296875,0.560302734375,-0.900146484375,16.0625,97.875,3.5,36.546875
1753,-0.411865234375,0.5517578125,-0.921875,12.375,92.75,2.0625,36.546875
1754,-0.411865234375,0.5517578125,-0.921875,12.375,92.75,2.0625,36.546875
1757,-0.411865234375,0.54248046875,-0.941162109375,7.4375,87.0,0.0625,36.546875
1759,-0.400146484375,0.54248046875,-0.941162109375,7.4375,87.0,0.0625,36.546875
1761,-0.400146484375,0.54248046875,-0.941162109375,7.4375,87.0,0.0625,36.546875
1763,-0.38916015625,0.542724609375,-0.9521484375,2.375,81.0625,-3.0,36.546875
1765,-0.38916015625,0.542724609375,-0.9521484375,2.375,81.0625,-3.0,36.546875
1766,-0.38330078125,0.549072265625,-0.944091796875,-2.9375,75.0625,-6.375,36.546875
1769,-0.38330078125,0.549072265625,-0.944091796875,-2.9375,75.0625,-6.375,36.546875
1770,-0.38330078125,0.570556640625,-0.928466796875,-8.4375,70.0625,-10.5625,36.546875
1772,-0.39990234375,0.570556640625,-0.928466796875,-8.4375,70.0625,-10.5625,36.546875
1774,-0.39990234375,0.570556640625,-0.928466796875,-8.4375,70.0625,-10.5625,36.546875
1776,-0.416259765625,0.588134765625,-0.919189453125,-13.0625,66.625,-15.125,36.546875
1779,-0.416259765625,0.588134765625,-0.919189453125,-13.0625,66.625,-15.125,36.546875
1780,-0.41552734375,0.58642578125,-0.914306640625,-16.5,64.9375,-19.0625,36.546875
1782,-0.41552734375,0.58642578125,-0.914306640625,-16.5,64.9375,-19.0625,36.546875
1784,-0.41015625,0.5654296875,-0.90478515625,-19.5,63.6875,-22.125,36.546875
1786,-0.41015625,0.5654296875,-0.90478515625,-19.5,63.6875,-22.125,36.546875
1788,-0.41015625,0.538818359375,-0.88818359375,-22.4375,61.9375,-25.25,36.546875
1790,-0.439208984375,0.538818359375,-0.88818359375,-22.4375,61.9375,-25.25,36.546875
1792,-0.439208984375,0.538818359375,-0.88818359375,-22.4375,61.9375,-25.25,36.546875
1794,-0.4794921875,0.56005859375,-0.895751953125,-24.875,59.875,-29.1875,36.546875
1796,-0.4794921875,0.56005859375,-0.895751953125,-24.875,59.875,-29.1875,36.546875
1798,-0.518798828125,0.667236328125,-0.9384765625,-23.125,58.0,-34.375,36.546875
1800,-0.518798828125,0.667236328125,-0.9384765625,-23.125,58.0,-34.375,36.546875
1802,-0.4912109375,0.803955078125,-0.953125,-18.6875,57.5,-39.1875,36.546875
1804,-0.4912109375,0.803955078125,-0.953125,-18.6875,57.5,-39.1875,36.546875
1806,-0.380615234375,0.862060546875,-0.93896484375,-14.75,54.625,-41.75,36.546875
1808,-0.380615234375,0.862060546875,-0.93896484375,-14.75,54.625,-41.75,36.546875
1810,-0.380615234375,0.862060546875,-0.93896484375,-14.75,54.625,-41.75,36.546875
1812,-0.31689453125,0.86474609375,-0.9189453125,-13.3125,47.6875,-44.125,36.546875
1814,-0.31689453125,0.86474609375,-0.9189453125,-13.3125,47.6875,-44.125,36.546875
1816,-0.343017578125,0.819091796875,-0.90673828125,-13.75,38.8125,-49.1875,36.546875
1818,-0.343017578125,0.819091796875,-0.90673828125,-13.75,38.8125,-49.1875,36.546875
1820,-0.400390625,0.7626953125,-0.89501953125,-13.4375,32.25,-56.5,36.546875
1822,-0.400390625,0.7626953125,-0.89501953125,-13.4375,32.25,-56.5,36.546875
1824,-0.420166015625,0.710205078125,-0.86669921875,-12.0625,29.125,-62.125,36.5546875
1826,-0.420166015625,0.710205078125,-0.86669921875,-12.0625,29.125,-62.125,36.5546875
1828,-0.420166015625,0.710205078125,-0.86669921875,-12.0625,29.125,-78.125,36.5546875
1830,-0.414794921875,0.6474609375,-0.826904296875,-11.0625,26.6875,-64.5625,36.5546875
1832,-0.414794921875,0.6474609375,-0.826904296875,-11.0625,26.6875,-64.5625,36.5546875
1833,-0.422607421875,0.5634765625,-0.7978515625,-10.875,24.0,-65.0,36.5546875
1835,-0.422607421875,0.5634765625,-0.7978515625,-10.875,24.0,-65.0,36.5546875
1837,-0.438720703125,0.483642578125,-0.778076171875,-10.1875,22.125,-64.6875,36.5546875
1839,-0.438720703125,0.483642578125,-0.778076171875,-10.1875,22.125,-64.6875,36.5546875
1841,-0.438720703125,0.483642578125,-0.778076171875,-8.4375,21.125,-63.5625,36.5546875
1844,-0.44287109375,0.41796875,-0.77490234375,-8.4375,21.125,-63.5625,36.5546875
1845,-0.44287109375,0.41796875,-0.77490234375,-8.4375,21.125,-61.1875,36.5546875
1848,-0.44140625,0.3642578125,-0.790283203125,-5.3125,19.75,-61.1875,36.5546875
1850,-0.44140625,0.3642578125,-0.803466796875,-0.75,18.1875,-58.125,36.5546875
1852,-0.443115234375,0.314697265625,-0.803466796875,-0.75,18.1875,-58.125,36.5546875
1854,-0.443115234375,0.314697265625,-0.803466796875,-0.75,18.1875,-58.125,36.5546875
1856,-0.447998046875,0.270751953125,-0.8046875,4.9375,16.4375,-54.5625,36.5546875
1858,-0.447998046875,0.270751953125,-0.8046875,4.9375,16.4375,-54.5625,36.5546875
1860,-0.455078125,0.239501953125,-0.804443359375,10.625,14.875,-50.375,36.5546875
1861,-0.455078125,0.239501953125,-0.804443359375,10.625,14.875,-50.375,36.5546875
1863,-0.465087890625,0.216796875,-0.804443359375,15.625,13.4375,-46.375,36.5546875
1866,-0.465087890625,0.216796875,-0.804443359375,15.625,13.4375,-46.375,36.5546875
1868,-0.472900390625,0.1982421875,-0.8046875,19.125,12.125,-42.375,36.5546875
1870,-0.472900390625,0.1982421875,-0.8046875,19.125,12.125,-42.375,36.5546875
1872,-0.472900390625,0.1982421875,-0.8046875,19.125,12.125,-42.375,36.5546875
1874,-0.476806640625,0.18017578125,-0.804443359375,20.1875,11.5625,-38.8125,36.5546875
1876,-0.476806640625,0.18017578125,-0.804443359375,20.1875,11.5625,-38.8125,36.5546875
1878,-0.48583984375,0.162353515625,-0.8046875,20.1875,11.8125,-35.4375,36.5546875
1879,-0.48583984375,0.162353515625,-0.8046875,20.1875,11.8125,-35.4375,36.5546875
1881,-0.498046875,0.145263671875,-0.8046875,19.3125,12.5,-32.375,36.5546875
1884,-0.498046875,0.145263671875,-0.8046875,19.3125,12.5,-32.375,36.5546875
1885,-0.498046875,0.145263671875,-0.8046875,17.5625,13.0625,-29.125,36.5546875
1888,-0.512939453125,0.12841796875,-0.804443359375,17.5625,13.0625,-29.125,36.5546875
1890,-0.512939453125,0.12841796875,-0.804443359375,17.5625,13.0625,-25.875,36.5546875
1892,-0.524658203125,0.11328125,-0.804443359375,14.5625,13.3125,-25.875,36.5546875
1893,-0.524658203125,0.11328125,-0.804443359375,14.5625,13.3125,-25.875,36.5546875
1895,-0.53076171875,0.099609375,-0.804443359375,10.625,13.625,-22.5625,36.5546875
1897,-0.53076171875,0.099609375,-0.804443359375,10.625,13.625,-22.5625,36.5546875
1899,-0.532958984375,0.092529296875,-0.80029296875,6.3125,14.5,-19.0,36.5546875
1901,-0.532958984375,0.092529296875,-0.80029296875,6.3125,14.5,-19.0,36.5546875
1903,-0.532958984375,0.092529296875,-0.80029296875,6.3125,14.5,-15.0,36.5546875
1905,-0.533935546875,0.088623046875,-0.784423828125,2.5625,14.8125,-15.0,36.5546875
1907,-0.533935546875,0.088623046875,-0.784423828125,2.5625,14.8125,-15.0,36.5546875
1909,-0.532470703125,0.09033203125,-0.76513671875,-0.625,15.25,-10.6875,36.5546875
1911,-0.532470703125,0.09033203125,-0.76513671875,-0.625,15.25,-10.6875,36.5546875
1913,-0.534912109375,0.099609375,-0.744140625,-3.625,15.4375,-6.125,36.5546875
1915,-0.534912109375,0.099609375,-0.744140625,-3.625,15.4375,-6.125,36.5546875
1917,-0.5341796875,0.114990234375,-0.7255859375,-5.8125,15.5,-1.75,36.5546875
1919,-0.5341796875,0.114990234375,-0.7255859375,-5.8125,15.5,-1.75,36.5546875
1921,-0.5341796875,0.114990234375,-0.7255859375,-5.8125,15.5,-1.75,36.5546875
1922,-0.531982421875,0.139892578125,-0.7109375,-7.4375,15.8125,2.6875,36.5546875
1924,-0.531982421875,0.139892578125,-0.7109375,-7.4375,15.8125,2.6875,36.5546875
1926,-0.531982421875,0.17236328125,-0.69482421875,-8.0,16.3125,7.125,36.5546875
1928,-0.531982421875,0.17236328125,-0.69482421875,-8.0,16.3125,7.125,36.5546875
1931,-0.531982421875,0.205810546875,-0.684326171875,-7.25,16.9375,11.375,36.5546875
1933,-0.531982421875,0.205810546875,-0.684326171875,-7.25,16.9375,11.375,36.5546875
1935,-0.531005859375,0.24169921875,-0.677490234375,-5.0,17.5,14.875,36.5546875
1937,-0.531005859375,0.24169921875,-0.677490234375,-5.0,17.5,14.875,36.5546875
1939,-0.531005859375,0.24169921875,-0.6669921875,-2.0,17.4375,17.9375,36.5546875
1941,-0.52294921875,0.280517578125,-0.6669921875,-2.0,17.4375,17.9375,36.5546875
1942,-0.52294921875,0.280517578125,-0.6669921875,-2.0,17.4375,17.9375,36.5546875
1945,-0.513427734375,0.321533203125,-0.6572265625,1.1875,16.875,20.4375,36.5546875
1947,-0.513427734375,0.321533203125,-0.6572265625,1.1875,16.875,20.4375,36.5546875
1948,-0.51220703125,0.357421875,-0.650146484375,4.3125,16.1875,22.0,36.5546875
1950,-0.51220703125,0.357421875,-0.650146484375,4.3125,16.1875,22.0,36.5546875
1953,-0.5068359375,0.384033203125,-0.646240234375,7.3125,15.6875,23.0,36.5546875
1955,-0.5068359375,0.384033203125,-0.646240234375,7.3125,15.6875,23.0,36.5546875
1957,-0.49658203125,0.405029296875,-0.647705078125,10.4375,15.5625,23.4375,36.5546875
1959,-0.49658203125,0.405029296875,-0.647705078125,10.4375,15.5625,23.4375,36.5546875
1961,-0.49658203125,0.4189453125,-0.650634765625,13.0625,15.75,23.25,36.5546875
1963,-0.48681640625,0.4189453125,-0.650634765625,13.0625,15.75,23.25,36.5546875
1965,-0.48681640625,0.4189453125,-0.650634765625,13.0625,15.75,23.25,36.5546875
1967,-0.48046875,0.427978515625,-0.6533203125,14.8125,16.0,22.0625,36.5703125
1969,-0.48046875,0.427978515625,-0.6533203125,14.8125,16.0,22.0625,36.5703125
1970,-0.477294921875,0.435791015625,-0.652587890625,15.625,16.1875,20.375,36.5703125
1972,-0.477294921875,0.435791015625,-0.652587890625,15.625,16.1875,20.375,36.5703125
1975,-0.47314453125,0.43798828125,-0.6513671875,15.25,16.5625,18.6875,36.5703125
1977,-0.47314453125,0.43798828125,-0.6513671875,15.25,16.5625,18.6875,36.5703125
1978,-0.47314453125,0.43798828125,-0.6513671875,14.1875,17.1875,16.625,36.5703125
1980,-0.46826171875,0.435791015625,-0.6474609375,14.1875,17.1875,16.625,36.5703125
1982,-0.46826171875,0.435791015625,-0.6474609375,14.1875,17.1875,16.625,36.5703125
1984,-0.465087890625,0.434326171875,-0.65087890625,12.5625,18.0625,14.4375,36.5703125
1986,-0.465087890625,0.434326171875,-0.65087890625,12.5625,18.0625,14.4375,36.5703125
1988,-0.464599609375,0.4296875,-0.66259765625,10.5625,18.8125,12.5625,36.5703125
1990,-0.464599609375,0.4296875,-0.66259765625,10.5625,18.8125,12.5625,36.5703125
1992,-0.465087890625,0.422607421875,-0.681884765625,8.75,19.3125,10.875,36.5703125
1994,-0.465087890625,0.422607421875,-0.681884765625,8.75,19.3125,10.875,36.5703125
1996,-0.46435546875,0.412353515625,-0.703369140625,7.75,19.5,9.5,36.5703125
1998,-0.46435546875,0.412353515625,-0.703369140625,7.75,19.5,9.5,36.5703125
2000,-0.46435546875,0.412353515625,-0.703369140625,7.75,19.5,9.5,36.5703125
2002,-0.470458984375,0.404541015625,-0.724853515625,7.6875,18.875,8.25,36.5703125
2004,-0.470458984375,0.404541015625,-0.724853515625,7.6875,18.875,8.25,36.5703125
2006,-0.479248046875,0.39501953125,-0.742919921875,7.75,17.5625,7.3125,36.5703125
2008,-0.479248046875,0.39501953125,-0.742919921875,7.75,17.5625,7.3125,36.5703125
2010,-0.489013671875,0.384765625,-0.75830078125,8.125,16.0625,6.8125,36.5703125
2012,-0.489013671875,0.384765625,-0.75830078125,8.125,16.0625,6.8125,36.5703125
2014,-0.489013671875,0.384765625,-0.75830078125,9.4375,14.1875,6.6875,36.5703125
2016,-0.498046875,0.375732421875,-0.76904296875,9.4375,14.1875,6.6875,36.5703125
2018,-0.498046875,0.375732421875,-0.76904296875,9.4375,14.1875,6.6875,36.5703125
2020,-0.507080078125,0.36962890625,-0.779052734375,10.8125,12.25,6.6875,36.5703125
2022,-0.507080078125,0.36962890625,-0.779052734375,10.8125,12.25,6.6875,36.5703125
2024,-0.519775390625,0.364990234375,-0.78271484375,11.6875,10.6875,6.9375,36.5703125
2026,-0.519775390625,0.364990234375,-0.78271484375,11.6875,10.6875,6.9375,36.5703125
2028,-0.5322265625,0.36572265625,-0.76953125,12.8125,9.4375,7.0625,36.5703125
2030,-0.5322265625,0.36572265625,-0.76953125,12.8125,9.4375,7.0625,36.5703125
2032,-0.5322265625,0.3720703125,-0.74609375,14.25,9.1875,7.4375,36.5703125
2034,-0.548583984375,0.3720703125,-0.74609375,14.25,9.1875,7.4375,36.5703125
2035,-0.548583984375,0.3720703125,-0.74609375,14.25,9.1875,7.4375,36.5703125
2037,-0.572021484375,0.38330078125,-0.72412109375,15.8125,10.0625,7.8125,36.5703125
2039,-0.572021484375,0.38330078125,-0.72412109375,15.8125,10.0625,7.8125,36.5703125
2042,-0.58837890625,0.39892578125,-0.714111328125,16.625,11.75,7.75,36.5703125
2044,-0.58837890625,0.39892578125,-0.714111328125,16.625,11.75,7.75,36.5703125
2046,-0.600830078125,0.41748046875,-0.715576171875,17.0625,13.5625,7.375,36.5703125
2048,-0.600830078125,0.41748046875,-0.715576171875,17.0625,13.5625,7.375,36.5703125
2050,-0.613037109375,0.432373046875,-0.725830078125,17.375,15.9375,6.625,36.5703125
2052,-0.613037109375,0.432373046875,-0.725830078125,17.375,15.9375,6.625,36.5703125
2054,-0.62548828125,0.4462890625,-0.73974609375,18.375,18.6875,5.75,36.5703125
2056,-0.62548828125,0.4462890625,-0.73974609375,18.375,18.6875,5.75,36.5703125
2058,-0.62548828125,0.4462890625,-0.73974609375,18.375,18.6875,5.75,36.5703125
2060,-0.638427734375,0.458251953125,-0.751953125,20.375,21.6875,5.125,36.5703125
2062,-0.638427734375,0.458251953125,-0.751953125,20.375,21.6875,5.125,36.5703125
2064,-0.652587890625,0.464111328125,-0.765380859375,23.0,24.5625,4.6875,36.5703125
2066,-0.652587890625,0.464111328125,-0.765380859375,23.0,24.5625,4.6875,36.5703125
2068,-0.66357421875,0.466796875,-0.78564453125,25.8125,26.875,4.1875,36.5703125
2070,-0.66357421875,0.466796875,-0.78564453125,25.8125,26.875,4.1875,36.5703125
2072,-0.673583984375,0.466064453125,-0.806396484375,28.125,29.125,3.75,36.5703125
2074,-0.673583984375,0.466064453125,-0.806396484375,28.125,29.125,3.75,36.5703125
2076,-0.673583984375,0.466064453125,-0.806396484375,28.125,29.125,3.75,36.5703125
2078,-0.682373046875,0.462646484375,-0.83154296875,29.5,31.0625,3.375,36.5703125
2080,-0.682373046875,0.462646484375,-0.83154296875,29.5,31.0625,3.375,36.5703125
2081,-0.6875,0.455810546875,-0.86865234375,29.5,33.375,3.0,36.5703125
2083,-0.6875,0.455810546875,-0.86865234375,29.5,33.375,3.0,36.5703125
2086,-0.688232421875,0.447509765625,-0.903076171875,28.8125,35.875,2.5625,36.5703125
2088,-0.688232421875,0.447509765625,-0.903076171875,28.8125,35.875,2.5625,36.5703125
2090,-0.690185546875,0.441650390625,-0.939453125,27.5625,37.6875,2.4375,36.5703125
2092,-0.690185546875,0.441650390625,-0.939453125,27.5625,37.6875,2.4375,36.5703125
2094,-0.690185546875,0.441650390625,-0.939453125,25.8125,38.75,2.375,36.5703125
2096,-0.69482421875,0.43505859375,-0.97607421875,25.8125,38.75,2.375,36.5703125
2097,-0.69482421875,0.43505859375,-0.97607421875,25.8125,38.75,2.375,36.5703125
2099,-0.69580078125,0.43115234375,-1.00927734375,24.375,39.75,2.375,36.5703125
2101,-0.69580078125,0.43115234375,-1.00927734375,24.375,39.75,2.375,36.5703125
2103,-0.6923828125,0.429443359375,-1.04638671875,23.25,40.3125,2.5,36.5703125
2105,-0.6923828125,0.429443359375,-1.04638671875,23.25,40.3125,2.5,36.5703125
2107,-0.6923828125,0.427978515625,-1.084716796875,21.9375,40.25,2.875,36.5703125
2109,-0.68896484375,0.427978515625,-1.084716796875,21.9375,40.25,2.875,36.578125
2111,-0.68896484375,0.427978515625,-1.084716796875,21.9375,39.5,3.25,36.578125
2113,-0.69140625,0.42578125,-1.116455078125,20.875,39.5,3.25,36.578125
2115,-0.69140625,0.42578125,-1.116455078125,20.875,39.5,3.25,36.578125
2117,-0.698486328125,0.421875,-1.13818359375,20.3125,38.25,3.5,36.578125
2119,-0.698486328125,0.421875,-1.13818359375,20.3125,38.25,3.5,36.578125
2121,-0.703857421875,0.41748046875,-1.1533203125,20.5625,36.375,4.0,36.578125
2123,-0.703857421875,0.41748046875,-1.1533203125,20.5625,36.375,4.0,36.578125
2125,-0.703857421875,0.41748046875,-1.1533203125,20.5625,36.375,4.75,36.578125
2126,-0.709228515625,0.41650390625,-1.162353515625,21.0,34.75,4.75,36.578125
2128,-0.709228515625,0.41650390625,-1.162353515625,21.0,34.75,4.75,36.578125
2130,-0.715576171875,0.419677734375,-1.16259765625,21.125,33.625,5.4375,36.578125
2133,-0.715576171875,0.419677734375,-1.16259765625,21.125,33.625,5.4375,36.578125
2135,-0.716796875,0.41943359375,-1.16064453125,20.9375,33.125,6.0625,36.578125
2137,-0.716796875,0.41943359375,-1.16064453125,20.9375,33.125,6.0625,36.578125
2138,-0.71728515625,0.41796875,-1.1611328125,20.875,33.25,6.75,36.578125
2140,-0.71728515625,0.41796875,-1.1611328125,20.875,33.25,6.75,36.578125
2142,-0.71728515625,0.41796875,-1.1611328125,20.875,33.25,6.9375,36.578125
2144,-0.71826171875,0.413818359375,-1.164794921875,20.75,33.5625,6.9375,36.578125
2146,-0.71826171875,0.413818359375,-1.164794921875,20.75,33.5625,6.9375,36.578125
2148,-0.7177734375,0.409423828125,-1.16650390625,20.3125,33.75,7.0,36.578125
2150,-0.7177734375,0.409423828125,-1.16650390625,20.3125,33.75,7.0,36.578125
2152,-0.720947265625,0.406494140625,-1.16552734375,19.8125,34.875,6.8125,36.578125
2154,-0.720947265625,0.406494140625,-1.16552734375,19.8125,34.875,6.8125,36.578125
2156,-0.724365234375,0.404296875,-1.165283203125,18.5625,36.6875,6.9375,36.578125
2158,-0.724365234375,0.404296875,-1.165283203125,18.5625,36.6875,6.9375,36.578125
2160,-0.724365234375,0.404296875,-1.165283203125,16.875,38.75,7.4375,36.578125
2162,-0.724853515625,0.40185546875,-1.171142578125,16.875,38.75,7.4375,36.578125
2164,-0.724853515625,0.40185546875,-1.171142578125,16.875,38.75,7.4375,36.578125
2166,-0.720947265625,0.3994140625,-1.185546875,15.9375,40.875,8.125,36.578125
2168,-0.720947265625,0.3994140625,-1.185546875,15.9375,40.875,8.125,36.578125
2170,-0.715087890625,0.394287109375,-1.2001953125,15.875,42.875,9.125,36.578125
2172,-0.715087890625,0.394287109375,-1.2001953125,15.875,42.875,9.125,36.578125
2173,-0.714111328125,0.389404296875,-1.216796875,16.5,44.5625,10.625,36.578125
2175,-0.714111328125,0.389404296875,-1.216796875,16.5,44.5625,10.625,36.578125
2178,-0.714111328125,0.389404296875,-1.23779296875,17.1875,45.6875,12.1875,36.578125
2180,-0.7138671875,0.388916015625,-1.23779296875,17.1875,45.6875,12.1875,36.578125
2182,-0.7138671875,0.388916015625,-1.23779296875,17.1875,45.6875,12.1875,36.578125
2184,-0.710205078125,0.38916015625,-1.260009765625,17.5,46.625,14.0625,36.578125
2185,-0.710205078125,0.38916015625,-1.260009765625,17.5,46.625,14.0625,36.578125
2187,-0.70556640625,0.39453125,-1.285400390625,17.1875,47.125,15.75,36.578125
2189,-0.70556640625,0.39453125,-1.285400390625,17.1875,47.125,15.75,36.578125
2191,-0.697265625,0.406494140625,-1.31640625,16.9375,46.8125,17.5625,36.578125
2193,-0.697265625,0.406494140625,-1.31640625,16.9375,46.8125,17.5625,36.578125
2195,-0.697265625,0.406494140625,-1.31640625,16.9375,46.8125,17.5625,36.578125
2197,-0.68408203125,0.42431640625,-1.34716796875,16.875,46.3125,19.3125,36.578125
2199,-0.68408203125,0.42431640625,-1.34716796875,16.875,46.3125,19.3125,36.578125
2202,-0.67529296875,0.439453125,-1.375244140625,17.1875,45.3125,21.0,36.578125
2204,-0.67529296875,0.439453125,-1.375244140625,17.1875,45.3125,21.0,36.578125
2206,-0.66259765625,0.44091796875,-1.39501953125,17.8125,44.125,22.4375,36.578125
2208,-0.66259765625,0.44091796875,-1.39501953125,17.8125,44.125,22.4375,36.578125
2210,-0.652587890625,0.440185546875,-1.405517578125,18.125,42.5625,23.25,36.578125
2212,-0.652587890625,0.440185546875,-1.405517578125,18.125,42.5625,23.25,36.578125
2214,-0.6455078125,0.442626953125,-1.41357421875,17.75,40.9375,23.875,36.578125
2216,-0.6455078125,0.442626953125,-1.41357421875,17.75,40.9375,23.875,36.578125
2217,-0.6455078125,0.442626953125,-1.41357421875,17.75,40.9375,23.875,36.578125
2219,-0.637451171875,0.44384765625,-1.42724609375,17.0625,39.5,24.1875,36.578125
2221,-0.637451171875,0.44384765625,-1.42724609375,17.0625,39.5,24.1875,36.578125
2224,-0.623291015625,0.44970703125,-1.449951171875,16.6875,38.1875,24.625,36.578125
2226,-0.623291015625,0.44970703125,-1.449951171875,16.6875,38.1875,24.625,36.578125
2228,-0.60791015625,0.45849609375,-1.47021484375,15.625,36.4375,25.4375,36.578125
2230,-0.60791015625,0.45849609375,-1.47021484375,15.625,36.4375,25.4375,36.578125
2232,-0.5966796875,0.469482421875,-1.494140625,14.5,34.0,25.875,36.578125
2234,-0.5966796875,0.469482421875,-1.494140625,14.5,34.0,25.875,36.578125
2237,-0.583984375,0.4873046875,-1.521484375,14.0,31.125,26.0625,36.578125
2239,-0.583984375,0.4873046875,-1.521484375,14.0,31.125,26.0625,36.578125
2242,-0.568603515625,0.51025390625,-1.551025390625,14.5,27.5,26.1875,36.578125
2244,-0.568603515625,0.51025390625,-1.551025390625,14.5,27.5,26.1875,36.578125
2246,-0.55078125,0.524658203125,-1.580078125,16.8125,22.625,26.5,36.578125
2248,-0.55078125,0.524658203125,-1.580078125,16.8125,22.625,26.5,36.578125
2251,-0.532470703125,0.53173828125,-1.606201171875,20.4375,17.0625,26.75,36.55078125
2253,-0.532470703125,0.53564453125,-1.625,24.25,11.625,26.625,36.55078125
2255,-0.525634765625,0.53564453125,-1.625,24.25,11.625,26.625,36.55078125
2257,-0.525634765625,0.53564453125,-1.625,24.25,11.625,26.625,36.55078125
2259,-0.513916015625,0.538818359375,-1.627685546875,27.125,6.75,26.25,36.55078125
2261,-0.513916015625,0.538818359375,-1.627685546875,27.125,6.75,26.25,36.55078125
2263,-0.494873046875,0.535400390625,-1.622802734375,27.625,2.1875,26.0625,36.55078125
2265,-0.494873046875,0.535400390625,-1.622802734375,27.625,2.1875,26.0625,36.55078125
2267,-0.462646484375,0.529296875,-1.618896484375,26.25,-0.875,25.875,36.55078125
2269,-0.462646484375,0.529296875,-1.618896484375,26.25,-0.875,25.875,36.55078125
2270,-0.462646484375,0.529296875,-1.618896484375,26.25,-0.875,25.875,36.55078125
2273,-0.4267578125,0.523681640625,-1.625732421875,23.8125,-2.25,25.6875,36.55078125
2275,-0.4267578125,0.523681640625,-1.625732421875,23.8125,-2.25,25.6875,36.55078125
2277,-0.39892578125,0.519287109375,-1.647705078125,20.9375,-3.4375,25.0625,36.55078125
2279,-0.39892578125,0.519287109375,-1.647705078125,20.9375,-3.4375,25.0625,36.55078125
2281,-0.377197265625,0.518798828125,-1.67578125,18.125,-5.125,24.1875,36.55078125
2282,-0.377197265625,0.518798828125,-1.67578125,18.125,-5.125,24.1875,36.55078125
2284,-0.358642578125,0.51953125,-1.699951171875,15.5625,-7.6875,22.875,36.55078125
2286,-0.358642578125,0.51953125,-1.699951171875,15.5625,-7.6875,22.875,36.55078125
2288,-0.358642578125,0.51953125,-1.699951171875,15.5625,-7.6875,22.875,36.55078125
2290,-0.34814453125,0.52099609375,-1.715576171875,13.4375,-11.125,21.3125,36.55078125
2293,-0.34814453125,0.52099609375,-1.715576171875,13.4375,-11.125,21.3125,36.55078125
2295,-0.3388671875,0.517822265625,-1.732177734375,12.0,-14.75,19.9375,36.55078125
2297,-0.3388671875,0.517822265625,-1.732177734375,12.0,-14.75,19.9375,36.55078125
2299,-0.3291015625,0.5126953125,-1.7529296875,11.375,-18.0,18.875,36.55078125
2301,-0.3291015625,0.5126953125,-1.7529296875,11.375,-18.0,18.875,36.55078125
2303,-0.321533203125,0.507568359375,-1.7705078125,11.4375,-21.625,17.6875,36.55078125
2305,-0.321533203125,0.507568359375,-1.7705078125,11.4375,-21.625,17.6875,36.55078125
2307,-0.313720703125,0.492919921875,-1.78466796875,11.875,-26.125,17.0625,36.55078125
2309,-0.313720703125,0.492919921875,-1.78466796875,11.875,-26.125,17.0625,36.55078125
2311,-0.313720703125,0.492919921875,-1.78466796875,11.875,-26.125,16.875,36.55078125
2312,-0.316162109375,0.475341796875,-1.7919921875,12.6875,-32.0625,16.875,36.55078125
2314,-0.316162109375,0.475341796875,-1.7919921875,12.6875,-32.0625,16.875,36.55078125
2317,-0.315673828125,0.458740234375,-1.799560546875,13.375,-38.8125,17.1875,36.55078125
2319,-0.315673828125,0.458740234375,-1.799560546875,13.375,-38.8125,17.1875,36.55078125
2321,-0.31201171875,0.44091796875,-1.802734375,14.0625,-45.4375,18.125,36.55078125
2323,-0.31201171875,0.44091796875,-1.802734375,14.0625,-45.4375,18.125,36.55078125
2325,-0.30810546875,0.420166015625,-1.794189453125,14.6875,-52.0625,19.4375,36.55078125
2327,-0.30810546875,0.420166015625,-1.794189453125,14.6875,-52.0625,19.4375,36.55078125
2328,-0.30810546875,0.420166015625,-1.77587890625,15.375,-58.75,21.0,36.55078125
2330,-0.3115234375,0.40283203125,-1.77587890625,15.375,-58.75,21.0,36.55078125
2332,-0.3115234375,0.40283203125,-1.77587890625,15.375,-58.75,21.0,36.55078125
2334,-0.31591796875,0.39990234375,-1.748779296875,15.5625,-66.0625,22.625,36.55078125
2336,-0.31591796875,0.39990234375,-1.748779296875,15.5625,-66.0625,22.625,36.55078125
2339,-0.318359375,0.40478515625,-1.714111328125,14.8125,-73.625,23.75,36.55078125
2340,-0.318359375,0.40478515625,-1.714111328125,14.8125,-73.625,23.75,36.55078125
2342,-0.3203125,0.411865234375,-1.68408203125,13.6875,-81.0,24.5,36.55078125
2344,-0.3203125,0.411865234375,-1.68408203125,13.6875,-81.0,24.5,36.55078125
2346,-0.3173828125,0.41845703125,-1.66162109375,11.875,-87.375,24.75,36.55078125
2348,-0.3173828125,0.41845703125,-1.66162109375,11.875,-87.375,24.75,36.55078125
2350,-0.3173828125,0.41845703125,-1.66162109375,11.875,-87.375,24.75,36.55078125
2352,-0.317626953125,0.425048828125,-1.638671875,9.75,-93.8125,24.1875,36.55078125
2354,-0.317626953125,0.425048828125,-1.638671875,9.75,-93.8125,24.1875,36.55078125
2356,-0.314697265625,0.427490234375,-1.61376953125,7.5625,-100.375,22.8125,36.55078125
2358,-0.314697265625,0.427490234375,-1.61376953125,7.5625,-100.375,22.8125,36.55078125
2360,-0.307861328125,0.421875,-1.58447265625,5.25,-107.1875,21.3125,36.55078125
2363,-0.307861328125,0.421875,-1.58447265625,5.25,-107.1875,21.3125,36.55078125
2365,-0.2958984375,0.41552734375,-1.56005859375,2.3125,-113.5625,20.25,36.55078125
2366,-0.2958984375,0.41552734375,-1.56005859375,2.3125,-113.5625,20.25,36.55078125
2368,-0.295654296875,0.41162109375,-1.536865234375,-0.6875,-119.25,19.75,36.55078125
2370,-0.295654296875,0.41162109375,-1.536865234375,-0.6875,-119.25,19.75,36.55078125
2372,-0.295654296875,0.41162109375,-1.536865234375,-0.6875,-119.25,19.75,36.55078125
2374,-0.290771484375,0.40234375,-1.51025390625,-2.6875,-124.5,19.4375,36.55078125
2376,-0.290771484375,0.40234375,-1.51025390625,-2.6875,-124.5,19.4375,36.55078125
2378,-0.2861328125,0.390869140625,-1.4873046875,-4.0,-127.875,20.25,36.55078125
2380,-0.2861328125,0.390869140625,-1.4873046875,-4.0,-127.875,20.25,36.55078125
2382,-0.292724609375,0.385009765625,-1.4677734375,-4.875,-131.125,21.5,36.55078125
2384,-0.292724609375,0.385009765625,-1.4677734375,-4.875,-131.125,21.5,36.55078125
2386,-0.29345703125,0.385009765625,-1.452392578125,-5.875,-134.5,22.75,36.55078125
2388,-0.29345703125,0.385009765625,-1.452392578125,-5.875,-134.5,22.75,36.55078125
2390,-0.29345703125,0.385009765625,-1.452392578125,-5.875,-134.5,22.75,36.55078125
2392,-0.2919921875,0.39111328125,-1.441650390625,-6.125,-138.0625,24.1875,36.5625
2394,-0.2919921875,0.39111328125,-1.441650390625,-6.125,-138.0625,24.1875,36.5625
2396,-0.2958984375,0.402099609375,-1.424560546875,-6.75,-141.875,25.625,36.5625
2398,-0.2958984375,0.402099609375,-1.424560546875,-6.75,-141.875,25.625,36.5625
2400,-0.292724609375,0.41357421875,-1.4130859375,-7.4375,-146.1875,26.75,36.5625
2402,-0.292724609375,0.41357421875,-1.4130859375,-7.4375,-146.1875,26.75,36.5625
2404,-0.290771484375,0.42919921875,-1.4033203125,-8.375,-150.8125,27.75,36.5625
2406,-0.290771484375,0.42919921875,-1.4033203125,-8.375,-150.8125,27.75,36.5625
2408,-0.290771484375,0.42919921875,-1.4033203125,-8.375,-150.8125,28.3125,36.5625
2410,-0.2822265625,0.445556640625,-1.389892578125,-9.5,-156.75,28.3125,36.5625
2412,-0.2822265625,0.445556640625,-1.389892578125,-9.5,-156.75,28.3125,36.5625
2414,-0.269775390625,0.459716796875,-1.379638671875,-9.9375,-163.75,28.125,36.5625
2416,-0.269775390625,0.459716796875,-1.379638671875,-9.9375,-163.75,28.125,36.5625
2418,-0.254150390625,0.468994140625,-1.367919921875,-9.75,-171.75,27.4375,36.5625
2419,-0.254150390625,0.468994140625,-1.367919921875,-9.75,-171.75,27.4375,36.5625
2421,-0.254150390625,0.468994140625,-1.367919921875,-9.75,-187.75,26.5625,36.5625
2423,-0.2412109375,0.472412109375,-1.35205078125,-9.4375,-181.0,26.5625,36.5625
2426,-0.2412109375,0.472412109375,-1.35205078125,-9.4375,-181.0,25.0625,36.5625
2428,-0.2314453125,0.46875,-1.333251953125,-9.625,-191.25,25.0625,36.5625
2430,-0.2314453125,0.46875,-1.333251953125,-9.625,-191.25,25.0625,36.5625
2432,-0.223388671875,0.4599609375,-1.302001953125,-10.5,-202.1875,23.25,36.5625
2433,-0.223388671875,0.4599609375,-1.302001953125,-10.5,-202.1875,23.25,36.5625
2436,-0.215576171875,0.446533203125,-1.263427734375,-12.25,-213.4375,21.4375,36.5625
2437,-0.215576171875,0.446533203125,-1.263427734375,-12.25,-213.4375,21.4375,36.5625
2439,-0.204833984375,0.42724609375,-1.220947265625,-14.375,-224.125,19.9375,36.5625
2441,-0.204833984375,0.42724609375,-1.220947265625,-14.375,-224.125,19.9375,36.5625
2443,-0.204833984375,0.42724609375,-1.220947265625,-14.375,-224.125,19.9375,36.5625
2445,-0.17919921875,0.406005859375,-1.173828125,-16.625,-234.875,18.25,36.5625
2448,-0.17822265625,0.38916015625,-1.13232421875,-18.875,-246.4375,16.0625,36.5625
2450,-0.17822265625,0.38916015625,-1.13232421875,-18.875,-246.4375,16.0625,36.5625
2452,-0.17822265625,0.38916015625,-1.13232421875,-18.875,-246.4375,0.0625,36.5625
2454,-0.19140625,0.37890625,-1.083251953125,-20.8125,-255.9375,15.6875,36.5625
2456,-0.19140625,0.37890625,-1.083251953125,-20.8125,-255.9375,15.6875,36.5625
2458,-0.18408203125,0.36962890625,-1.02685546875,-22.3125,-264.1875,16.5625,36.5625
2460,-0.18408203125,0.36962890625,-1.02685546875,-22.3125,-264.1875,16.5625,36.5625
2462,-0.16015625,0.3623046875,-0.96923828125,-24.375,-272.125,17.75,36.5625
2464,-0.16015625,0.3623046875,-0.96923828125,-24.375,-272.125,17.75,36.5625
2466,-0.16015625,0.3623046875,-0.9228515625,-26.9375,-279.5,18.8125,36.5625
2468,-0.134521484375,0.3623046875,-0.9228515625,-26.9375,-279.5,18.8125,36.5625
2470,-0.134521484375,0.3623046875,-0.9228515625,-29.0,-286.5,20.1875,36.5625
2472,-0.11962890625,0.362548828125,-0.88232421875,-29.0,-286.5,20.1875,36.5625
2474,-0.11962890625,0.362548828125,-0.88232421875,-29.0,-286.5,20.1875,36.5625
2476,-0.1025390625,0.362548828125,-0.83984375,-29.375,-294.5625,22.5625,36.5625
2478,-0.1025390625,0.362548828125,-0.83984375,-29.375,-294.5625,22.5625,36.5625
2480,-0.08154296875,0.362548828125,-0.7998046875,-28.75,-303.5,24.125,36.5625
2482,-0.08154296875,0.362548828125,-0.7998046875,-28.75,-303.5,24.125,36.5625
2484,-0.056640625,0.362060546875,-0.74755859375,-28.25,-312.375,24.5,36.5625
2486,-0.056640625,0.362060546875,-0.74755859375,-28.25,-312.375,24.5,36.5625
2488,-0.056640625,0.362060546875,-0.74755859375,-28.25,-328.375,23.875,36.5625
2490,-0.028564453125,0.35986328125,-0.691162109375,-29.3125,-321.0625,23.875,36.5625
2492,-0.028564453125,0.35986328125,-0.691162109375,-29.3125,-321.0625,23.875,36.5625
2494,0.003662109375,0.359619140625,-0.6396484375,-32.3125,-328.5,24.125,36.5625
2496,0.003662109375,0.359619140625,-0.6396484375,-32.3125,-328.5,24.125,36.5625
2498,0.035888671875,0.3623046875,-0.597412109375,-36.0625,-334.625,25.4375,36.5625
2500,0.035888671875,0.3623046875,-0.597412109375,-36.0625,-334.625,25.4375,36.5625
2502,0.072998046875,0.3623046875,-0.552978515625,-38.125,-340.0625,27.3125,36.5625
2504,0.072998046875,0.3623046875,-0.552978515625,-38.125,-340.0625,27.3125,36.5625
2505,0.072998046875,0.3623046875,-0.552978515625,-38.125,-340.0625,28.5,36.5625
2507,0.111083984375,0.362060546875,-0.50634765625,-37.0625,-345.875,28.5,36.5625
2509,0.111083984375,0.362060546875,-0.50634765625,-37.0625,-345.875,28.5,36.5625
2511,0.147705078125,0.3544921875,-0.4580078125,-35.375,-349.9375,28.1875,36.5625
2513,0.147705078125,0.3544921875,-0.4580078125,-35.375,-349.9375,28.1875,36.5625
2516,0.18896484375,0.333984375,-0.39208984375,-34.5625,-352.625,26.0,36.5625
2517,0.18896484375,0.333984375,-0.39208984375,-34.5625,-352.625,26.0,36.5625
2519,0.223876953125,0.307373046875,-0.310791015625,-35.25,-355.375,22.875,36.5625
2521,0.223876953125,0.307373046875,-0.310791015625,-35.25,-355.375,22.875,36.5625
2524,0.2421875,0.26904296875,-0.22265625,-38.0625,-356.8125,19.4375,36.5625
2525,0.2421875,0.26904296875,-0.22265625,-38.0625,-356.8125,19.4375,36.5625
2527,0.2421875,0.26904296875,-0.22265625,-38.0625,-356.8125,19.4375,36.5625
2529,0.24462890625,0.2294921875,-0.139892578125,-41.625,-355.1875,15.625,36.5625
2531,0.24462890625,0.2294921875,-0.139892578125,-41.625,-355.1875,15.625,36.5625
2533,0.23876953125,0.192138671875,-0.05517578125,-47.75,-344.4375,12.0,36.5859375
2535,0.23876953125,0.192138671875,-0.05517578125,-47.75,-344.4375,12.0,36.5859375
2537,0.22705078125,0.158203125,0.07177734375,-56.25,-329.6875,9.5,36.5859375
2539,0.22705078125,0.158203125,0.07177734375,-56.25,-329.6875,9.5,36.5859375
2541,0.2333984375,0.115966796875,0.198974609375,-62.9375,-314.625,8.0,36.5859375
2543,0.2333984375,0.115966796875,0.198974609375,-62.9375,-314.625,8.0,36.5859375
2545,0.2333984375,0.115966796875,0.198974609375,-62.9375,-314.625,8.0,36.5859375
2547,0.21728515625,0.07470703125,0.34033203125,-67.3125,-297.125,5.875,36.5859375
2549,0.21728515625,0.07470703125,0.34033203125,-67.3125,-297.125,5.875,36.5859375
2551,0.1748046875,0.05810546875,0.501708984375,-69.8125,-278.0625,2.625,36.5859375
2553,0.1748046875,0.05810546875,0.501708984375,-69.8125,-278.0625,2.625,36.5859375
2555,0.11962890625,0.070068359375,0.6572265625,-72.75,-258.6875,-1.125,36.5859375
2557,0.11962890625,0.070068359375,0.6572265625,-72.75,-258.6875,-1.125,36.5859375
2559,0.11962890625,0.070068359375,0.6572265625,-72.75,-239.625,-6.25,36.5859375
2561,0.05908203125,0.0986328125,0.786865234375,-76.875,-239.625,-6.25,36.5859375
2563,0.05908203125,0.0986328125,0.786865234375,-76.875,-239.625,-6.25,36.5859375
2565,0.004150390625,0.1328125,0.868896484375,-81.875,-221.5,-12.25,36.5859375
2567,0.004150390625,0.1328125,0.868896484375,-81.875,-221.5,-12.25,36.5859375
2569,-0.03173828125,0.16162109375,0.90673828125,-87.75,-204.5625,-19.875,36.5859375
2571,-0.03173828125,0.16162109375,0.90673828125,-87.75,-204.5625,-19.875,36.5859375
2572,-0.045166015625,0.18359375,0.906494140625,-92.625,-190.125,-28.25,36.5859375
2574,-0.045166015625,0.18359375,0.906494140625,-92.625,-190.125,-28.25,36.5859375
2576,-0.045166015625,0.18359375,0.906494140625,-92.625,-190.125,-44.25,36.5859375
2578,-0.034912109375,0.193359375,0.8701171875,-94.75,-178.5,-36.5625,36.5859375
2580,-0.034912109375,0.193359375,0.8701171875,-94.75,-178.5,-36.5625,36.5859375
2582,-0.010009765625,0.186279296875,0.80126953125,-92.3125,-169.6875,-44.0625,36.5859375
2584,-0.010009765625,0.186279296875,0.80126953125,-92.3125,-169.6875,-44.0625,36.5859375
2586,0.01953125,0.1572265625,0.701171875,-83.9375,-164.8125,-49.5625,36.5859375
2588,0.01953125,0.1572265625,0.701171875,-83.9375,-164.8125,-49.5625,36.5859375
2590,0.052001953125,0.109130859375,0.601806640625,-69.0625,-164.5,-51.9375,36.5859375
2592,0.052001953125,0.109130859375,0.601806640625,-69.0625,-164.5,-51.9375,36.5859375
2594,0.114501953125,0.056396484375,0.515625,-50.1875,-169.1875,-50.875,36.5859375
2596,0.08740234375,0.056396484375,0.515625,-50.1875,-169.1875,-50.875,36.5859375
2598,0.08740234375,0.056396484375,0.515625,-50.1875,-169.1875,-50.875,36.5859375
2600,0.111572265625,0.001953125,0.447265625,-29.75,-178.375,-46.5625,36.5859375
2602,0.111572265625,0.001953125,0.447265625,-29.75,-178.375,-46.5625,36.5859375
2605,0.11962890625,-0.054931640625,0.39599609375,-10.4375,-190.25,-39.3125,36.5859375
2607,0.11962890625,-0.054931640625,0.39599609375,-10.4375,-190.25,-39.3125,36.5859375
2609,0.115234375,-0.116455078125,0.365478515625,7.0625,-203.5625,-30.0,36.5859375
2610,0.115234375,-0.116455078125,0.365478515625,7.0625,-203.5625,-30.0,36.5859375
2612,0.096923828125,-0.17578125,0.365966796875,23.5625,-217.0,-18.6875,36.5859375
2614,0.096923828125,-0.17578125,0.365966796875,23.5625,-217.0,-18.6875,36.5859375
2616,0.096923828125,-0.17578125,0.365966796875,23.5625,-217.0,-18.6875,36.5859375
2618,0.068603515625,-0.219970703125,0.38671875,37.3125,-229.625,-6.125,36.5859375
2620,0.068603515625,-0.219970703125,0.38671875,37.3125,-229.625,-6.125,36.5859375
2622,0.044189453125,-0.258544921875,0.44580078125,47.0625,-239.25,6.875,36.5859375
2624,0.044189453125,-0.258544921875,0.44580078125,47.0625,-239.25,6.875,36.5859375
2626,0.006591796875,-0.296630859375,0.569580078125,55.6875,-243.8125,19.9375,36.5859375
2628,0.006591796875,-0.296630859375,0.569580078125,55.6875,-243.8125,19.9375,36.5859375
2630,-0.08935546875,-0.3076171875,0.7626953125,65.3125,-241.125,32.0625,36.5859375
2633,-0.08935546875,-0.3076171875,0.7626953125,65.3125,-241.125,32.0625,36.5859375
2635,-0.238037109375,-0.266357421875,0.97900390625,70.75,-230.625,42.4375,36.5859375
2637,-0.238037109375,-0.266357421875,0.97900390625,70.75,-230.625,42.4375,36.5859375
2639,-0.3935546875,-0.186767578125,1.177001953125,68.0,-213.0625,50.4375,36.5859375
2641,-0.3935546875,-0.186767578125,1.177001953125,68.0,-213.0625,50.4375,36.5859375
2643,-0.521728515625,-0.0927734375,1.32373046875,55.8125,-191.9375,55.25,36.5859375
2645,-0.521728515625,-0.0927734375,1.32373046875,55.8125,-191.9375,55.25,36.5859375
2648,-0.622314453125,0.0029296875,1.41943359375,36.0,-169.0625,55.625,36.5859375
2650,-0.622314453125,0.0029296875,1.41943359375,36.0,-169.0625,55.625,36.5859375
2652,-0.69384765625,0.106689453125,1.451416015625,11.8125,-145.6875,50.75,36.5859375
2654,-0.69384765625,0.106689453125,1.451416015625,11.8125,-145.6875,50.75,36.5859375
2656,-0.69384765625,0.106689453125,1.451416015625,11.8125,-145.6875,50.75,36.5859375
2658,-0.7314453125,0.20947265625,1.426513671875,-14.75,-122.25,41.1875,36.5859375
2660,-0.7314453125,0.20947265625,1.426513671875,-14.75,-122.25,41.1875,36.5859375
2662,-0.740966796875,0.29736328125,1.362060546875,-39.5625,-99.375,27.5625,36.5859375
2664,-0.740966796875,0.29736328125,1.362060546875,-39.5625,-99.375,27.5625,36.5859375
2666,-0.73779296875,0.3681640625,1.272216796875,-58.5625,-77.75,12.0,36.5859375
2668,-0.73779296875,0.3681640625,1.272216796875,-58.5625,-77.75,12.0,36.5859375
2670,-0.7255859375,0.426513671875,1.176513671875,-69.8125,-58.25,-3.5,36.5859375
2673,-0.7255859375,0.426513671875,1.176513671875,-69.8125,-58.25,-3.5,36.5859375
2675,-0.70654296875,0.456787109375,1.07958984375,-73.8125,-42.5625,-16.4375,36.5703125
2677,-0.70654296875,0.456787109375,1.07958984375,-73.8125,-42.5625,-16.4375,36.5703125
2680,-0.6923828125,0.458251953125,0.98486328125,-70.875,-32.625,-25.75,36.5703125
2682,-0.6923828125,0.458251953125,0.98486328125,-70.875,-32.625,-25.75,36.5703125
2684,-0.690185546875,0.439697265625,0.895751953125,-61.5625,-28.5625,-31.125,36.5703125
2686,-0.690185546875,0.439697265625,0.895751953125,-61.5625,-28.5625,-31.125,36.5703125
2688,-0.70556640625,0.406005859375,0.813232421875,-47.6875,-28.625,-32.5,36.5703125
2690,-0.70556640625,0.406005859375,0.813232421875,-47.6875,-28.625,-32.5,36.5703125
2692,-0.729736328125,0.365966796875,0.74267578125,-31.5,-31.625,-30.25,36.5703125
2694,-0.729736328125,0.365966796875,0.74267578125,-31.5,-31.625,-30.25,36.5703125
2696,-0.76953125,0.32177734375,0.683349609375,-14.3125,-35.75,-24.75,36.5703125
2698,-0.76953125,0.32177734375,0.683349609375,-14.3125,-35.75,-24.75,36.5703125
2700,-0.76953125,0.32177734375,0.683349609375,-14.3125,-35.75,-24.75,36.5703125
2702,-0.8154296875,0.27587890625,0.636962890625,2.0625,-39.1875,-16.9375,36.5703125
2704,-0.8154296875,0.27587890625,0.636962890625,2.0625,-39.1875,-16.9375,36.5703125
2706,-0.857177734375,0.23486328125,0.604248046875,15.9375,-41.625,-7.375,36.5703125
2708,-0.857177734375,0.23486328125,0.604248046875,15.9375,-41.625,-7.375,36.5703125
2710,-0.894287109375,0.206298828125,0.578125,26.375,-43.4375,2.8125,36.5703125
2712,-0.894287109375,0.206298828125,0.578125,26.375,-43.4375,2.8125,36.5703125
2714,-0.894287109375,0.206298828125,0.5576171875,32.5625,-44.1875,12.3125,36.5703125
2716,-0.927734375,0.19873046875,0.5576171875,32.5625,-44.1875,12.3125,36.5703125
2718,-0.9521484375,0.2099609375,0.543212890625,33.8125,-43.8125,19.625,36.5703125
2720,-0.9521484375,0.2099609375,0.543212890625,33.8125,-43.8125,19.625,36.5703125
2722,-0.9521484375,0.2099609375,0.543212890625,33.8125,-43.8125,19.625,36.5703125
2724,-0.965576171875,0.227783203125,0.530029296875,30.3125,-42.4375,24.3125,36.5703125
2726,-0.965576171875,0.227783203125,0.530029296875,30.3125,-42.4375,24.3125,36.5703125
2728,-0.971435546875,0.249755859375,0.51513671875,23.0,-39.8125,26.875,36.5703125
2730,-0.971435546875,0.249755859375,0.51513671875,23.0,-39.8125,26.875,36.5703125
2732,-0.975341796875,0.273681640625,0.5048828125,13.4375,-36.25,27.1875,36.5703125
2734,-0.975341796875,0.273681640625,0.5048828125,13.4375,-36.25,27.1875,36.5703125
2736,-0.975341796875,0.273681640625,0.5048828125,13.4375,-36.25,27.1875,36.5703125
2738,-0.97607421875,0.302490234375,0.496826171875,2.9375,-31.9375,26.0625,36.5703125
2740,-0.97607421875,0.302490234375,0.496826171875,2.9375,-31.9375,26.0625,36.5703125
2742,-0.9765625,0.33349609375,0.489990234375,-7.5625,-27.75,24.0,36.5703125
2744,-0.9765625,0.33349609375,0.489990234375,-7.5625,-27.75,24.0,36.5703125
2746,-0.98046875,0.369873046875,0.480224609375,-17.25,-24.0,21.5625,36.5703125
2748,-0.98046875,0.369873046875,0.480224609375,-17.25,-24.0,21.5625,36.5703125
2749,-0.98779296875,0.4130859375,0.474609375,-24.25,-20.8125,19.0,36.5703125
2752,-0.98779296875,0.4130859375,0.474609375,-24.25,-20.8125,19.0,36.5703125
2754,-0.98779296875,0.4130859375,0.474609375,-24.25,-20.8125,19.0,36.5703125
2755,-0.997314453125,0.459228515625,0.47216796875,-28.375,-17.625,16.6875,36.5703125
2757,-0.997314453125,0.459228515625,0.47216796875,-28.375,-17.625,16.6875,36.5703125
2760,-1.004638671875,0.505859375,0.467041015625,-30.0625,-14.4375,15.375,36.5703125
2762,-1.004638671875,0.505859375,0.467041015625,-30.0625,-14.4375,15.375,36.5703125
2764,-1.009765625,0.5458984375,0.461181640625,-29.5625,-11.25,14.1875,36.5703125
2766,-1.009765625,0.5458984375,0.461181640625,-29.5625,-11.25,14.1875,36.5703125
2768,-1.015625,0.58251953125,0.452392578125,-27.1875,-8.6875,12.9375,36.5703125
2770,-1.015625,0.58251953125,0.452392578125,-27.1875,-8.6875,12.9375,36.5703125
2772,-1.02392578125,0.611572265625,0.443359375,-23.375,-5.8125,11.875,36.5703125
2774,-1.02392578125,0.611572265625,0.443359375,-23.375,-5.8125,11.875,36.5703125
2776,-1.02392578125,0.611572265625,0.443359375,-23.375,-3.1875,11.0625,36.5703125
2778,-1.030029296875,0.632080078125,0.432373046875,-19.0,-3.1875,11.0625,36.5703125
2780,-1.030029296875,0.632080078125,0.432373046875,-19.0,-3.1875,11.0625,36.5703125
2782,-1.035400390625,0.642822265625,0.420654296875,-14.875,-1.25,10.25,36.5703125
2784,-1.035400390625,0.642822265625,0.420654296875,-14.875,-1.25,10.25,36.5703125
2786,-1.03955078125,0.643798828125,0.403076171875,-10.875,-0.0625,9.8125,36.5703125
2788,-1.03955078125,0.643798828125,0.403076171875,-10.875,-0.0625,9.8125,36.5703125
2790,-1.0380859375,0.637939453125,0.38671875,-7.3125,0.5,9.1875,36.5703125
2792,-1.0380859375,0.637939453125,0.38671875,-7.3125,0.5,9.1875,36.5703125
2794,-1.03466796875,0.630615234375,0.371826171875,-4.125,0.4375,9.0,36.5703125
2796,-1.03466796875,0.630615234375,0.371826171875,-4.125,0.4375,9.0,36.5703125
2797,-1.03466796875,0.630615234375,0.371826171875,-4.125,0.4375,9.0,36.5703125
2799,-1.030029296875,0.621826171875,0.356201171875,-1.1875,-0.4375,9.0,36.5703125
2801,-1.030029296875,0.621826171875,0.356201171875,-1.1875,-0.4375,9.0,36.5703125
2803,-1.027099609375,0.613037109375,0.343994140625,1.5,-1.875,9.1875,36.5703125
2805,-1.027099609375,0.613037109375,0.343994140625,1.5,-1.875,9.1875,36.5703125
2808,-1.022705078125,0.603271484375,0.333251953125,3.9375,-3.5625,9.125,36.5703125
2812,-1.022216796875,0.5927734375,0.322265625,6.0,-5.0,8.9375,36.5703125
2814,-1.022216796875,0.5927734375,0.322265625,6.0,-5.0,8.9375,36.5703125
2816,-1.021728515625,0.578125,0.31591796875,7.3125,-6.25,8.375,36.55078125
2818,-1.021728515625,0.578125,0.31591796875,7.3125,-6.25,8.375,36.55078125
2820,-1.021728515625,0.578125,0.31591796875,7.8125,-7.125,7.4375,36.55078125
2822,-1.02294921875,0.560546875,0.315673828125,7.8125,-7.125,7.4375,36.55078125
2824,-1.02294921875,0.560546875,0.315673828125,7.8125,-7.125,7.4375,36.55078125
2826,-1.0234375,0.53955078125,0.31298828125,7.1875,-7.3125,6.4375,36.55078125
2828,-1.0234375,0.53955078125,0.31298828125,7.1875,-7.3125,6.4375,36.55078125
2830,-1.022705078125,0.52099609375,0.3095703125,5.8125,-7.0,5.5625,36.55078125
2832,-1.022705078125,0.52099609375,0.3095703125,5.8125,-7.0,5.5625,36.55078125
2834,-1.018798828125,0.503173828125,0.31298828125,3.9375,-6.3125,5.0,36.55078125
2836,-1.018798828125,0.503173828125,0.31298828125,3.9375,-6.3125,5.0,36.55078125
2838,-1.0146484375,0.4912109375,0.316650390625,2.0,-5.0625,4.625,36.55078125
2840,-1.0146484375,0.4912109375,0.316650390625,2.0,-5.0625,4.625,36.55078125
2842,-1.0146484375,0.4912109375,0.316650390625,2.0,-5.0625,4.375,36.55078125
2844,-1.010009765625,0.48681640625,0.321533203125,0.1875,-3.625,4.375,36.55078125
2846,-1.010009765625,0.48681640625,0.321533203125,0.1875,-3.625,4.375,36.55078125
2848,-1.00537109375,0.489013671875,0.328857421875,-1.5,-2.1875,3.9375,36.55078125
2851,-1.00537109375,0.489013671875,0.328857421875,-1.5,-2.1875,3.9375,36.55078125
2853,-1.00244140625,0.49462890625,0.3408203125,-2.6875,-0.8125,3.625,36.55078125
2855,-1.00244140625,0.49462890625,0.3408203125,-2.6875,-0.8125,3.625,36.55078125
2857,-1.003173828125,0.500244140625,0.35791015625,-2.8125,0.875,3.0625,36.55078125
2859,-1.003173828125,0.500244140625,0.35791015625,-2.8125,0.875,3.0625,36.55078125
2861,-1.009765625,0.504638671875,0.379638671875,-1.75,3.0625,2.25,36.55078125
2863,-1.009765625,0.504638671875,0.379638671875,-1.75,3.0625,2.25,36.55078125
2865,-1.022216796875,0.504638671875,0.40478515625,0.125,5.375,1.75,36.55078125
2867,-1.022216796875,0.504638671875,0.40478515625,0.125,5.375,1.75,36.55078125
2869,-1.033203125,0.503662109375,0.42578125,1.6875,8.0625,1.5,36.55078125
2871,-1.033203125,0.503662109375,0.42578125,1.6875,8.0625,1.5,36.55078125
2873,-1.033203125,0.503662109375,0.42578125,1.6875,8.0625,1.5,36.55078125
2875,-1.038818359375,0.50048828125,0.439453125,2.3125,11.125,1.8125,36.55078125
2877,-1.038818359375,0.50048828125,0.439453125,2.3125,11.125,1.8125,36.55078125
2879,-1.039306640625,0.49658203125,0.447265625,2.5,14.25,2.4375,36.55078125
2881,-1.039306640625,0.49658203125,0.447265625,2.5,14.25,2.4375,36.55078125
2884,-1.037109375,0.496337890625,0.4462890625,2.75,17.4375,3.125,36.55078125
2885,-1.037109375,0.496337890625,0.4462890625,2.75,17.4375,3.125,36.55078125
2887,-1.02587890625,0.498046875,0.43994140625,3.0,20.3125,3.8125,36.55078125
2889,-1.02587890625,0.498046875,0.43994140625,3.0,20.3125,3.8125,36.55078125
2891,-1.008056640625,0.501708984375,0.43115234375,3.0625,22.375,4.0,36.55078125
2893,-1.008056640625,0.501708984375,0.43115234375,3.0625,22.375,4.0,36.55078125
2895,-1.008056640625,0.501708984375,0.43115234375,3.0625,22.375,4.0,36.55078125
2897,-0.98876953125,0.50390625,0.4169921875,3.25,23.625,3.5,36.55078125
2899,-0.98876953125,0.50390625,0.4169921875,3.25,23.625,3.5,36.55078125
2902,-0.974609375,0.50341796875,0.405517578125,3.875,24.0625,2.6875,36.55078125
2903,-0.974609375,0.50341796875,0.405517578125,3.875,24.0625,2.6875,36.55078125
2906,-0.966064453125,0.502685546875,0.399658203125,5.125,24.1875,1.625,36.55078125
2908,-0.966064453125,0.502685546875,0.399658203125,5.125,24.1875,1.625,36.55078125
2910,-0.96142578125,0.501953125,0.39697265625,6.625,24.25,0.5,36.55078125
2912,-0.96142578125,0.501953125,0.39697265625,6.625,24.25,0.5,36.55078125
2914,-0.957763671875,0.496826171875,0.3984375,7.9375,24.3125,-0.3125,36.55078125
2919,-0.955322265625,0.489013671875,0.40380859375,8.375,24.6875,-0.9375,36.55078125
2921,-0.955322265625,0.489013671875,0.40380859375,8.375,24.6875,-0.9375,36.55078125
2922,-0.956298828125,0.475830078125,0.4072265625,8.6875,25.5,-1.3125,36.55078125
2924,-0.956298828125,0.475830078125,0.4072265625,8.6875,25.5,-1.3125,36.55078125
2926,-0.956298828125,0.475830078125,0.4072265625,8.6875,25.5,-1.3125,36.55078125
2928,-0.956787109375,0.45703125,0.4111328125,9.125,26.875,-1.3125,36.55078125
2931,-0.956787109375,0.45703125,0.4111328125,9.125,26.875,-1.3125,36.55078125
2932,-0.959228515625,0.437744140625,0.412841796875,9.125,28.4375,-0.875,36.55078125
2934,-0.959228515625,0.437744140625,0.412841796875,9.125,28.4375,-0.875,36.55078125
2937,-0.955078125,0.423583984375,0.41064453125,8.6875,30.375,-0.3125,36.55078125
2938,-0.955078125,0.423583984375,0.41064453125,8.6875,30.375,-0.3125,36.55078125
2940,-0.949951171875,0.416259765625,0.41015625,7.875,32.3125,0.25,36.55078125
2942,-0.949951171875,0.416259765625,0.41015625,7.875,32.3125,0.25,36.55078125
2944,-0.94775390625,0.406982421875,0.41162109375,7.125,34.1875,1.0,36.55078125
2946,-0.94775390625,0.406982421875,0.41162109375,7.125,34.1875,1.0,36.55078125
2949,-0.947021484375,0.3994140625,0.414306640625,6.625,35.9375,1.5625,36.55078125
2951,-0.947021484375,0.3994140625,0.414306640625,6.625,35.9375,1.5625,36.55078125
2952,-0.947021484375,0.3994140625,0.414306640625,6.625,35.9375,1.5625,36.55078125
2955,-0.94677734375,0.393798828125,0.41748046875,6.75,37.875,2.25,36.55078125
2957,-0.94677734375,0.393798828125,0.41748046875,6.75,37.875,2.25,36.55078125
2959,-0.947021484375,0.3896484375,0.42529296875,7.3125,39.5625,3.3125,36.5703125
2961,-0.947021484375,0.3896484375,0.42529296875,7.3125,39.5625,3.3125,36.5703125
2963,-0.945556640625,0.388427734375,0.43212890625,8.25,41.4375,4.4375,36.5703125
2965,-0.945556640625,0.388427734375,0.43212890625,8.25,41.4375,4.4375,36.5703125
2967,-0.945068359375,0.393310546875,0.43994140625,9.0625,43.5,5.5,36.5703125
2969,-0.945068359375,0.393310546875,0.43994140625,9.0625,43.5,5.5,36.5703125
2970,-0.945068359375,0.393310546875,0.43994140625,9.0625,43.5,5.5,36.5703125
2973,-0.944091796875,0.40234375,0.443115234375,9.1875,45.875,6.1875,36.5703125
2974,-0.944091796875,0.40234375,0.443115234375,9.1875,45.875,6.1875,36.5703125
2976,-0.94140625,0.41357421875,0.44580078125,9.25,48.1875,6.5625,36.5703125
2979,-0.94140625,0.41357421875,0.44580078125,9.25,48.1875,6.5625,36.5703125
2981,-0.935302734375,0.424560546875,0.449462890625,9.625,50.8125,7.0,36.5703125
2983,-0.935302734375,0.424560546875,0.449462890625,9.625,50.8125,7.0,36.5703125
2985,-0.927001953125,0.431884765625,0.454345703125,10.1875,53.6875,7.0625,36.5703125
2986,-0.927001953125,0.431884765625,0.454345703125,10.1875,53.6875,7.0625,36.5703125
2989,-0.927001953125,0.438232421875,0.459228515625,11.1875,56.125,7.0,36.5703125
2990,-0.920654296875,0.438232421875,0.459228515625,11.1875,56.125,7.0,36.5703125
2992,-0.920654296875,0.438232421875,0.459228515625,11.1875,56.125,7.0,36.5703125
2994,-0.9189453125,0.447998046875,0.468994140625,12.125,58.375,6.625,36.5703125
2996,-0.9189453125,0.447998046875,0.468994140625,12.125,58.375,6.625,36.5703125
2998,-0.919921875,0.461181640625,0.482666015625,12.625,60.875,6.0,36.5703125
3001,-0.919921875,0.461181640625,0.482666015625,12.625,60.875,6.0,36.5703125
3002,-0.916259765625,0.47314453125,0.4921875,12.25,63.8125,5.1875,36.5703125
