time,acc_x,acc_y,acc_z,gyro_x,gyro_y,gyro_z,temp
1,0.0,0.0,0.0,0.0,0.0,0.0,0.0
3,0.0,0.0,0.0,0.0,0.0,0.0,0.0
5,0.0,0.0,0.0,0.0,0.0,0.0,0.0
7,0.0,0.0,0.0,0.0,0.0,0.0,0.0
9,0.0,0.0,0.0,0.0,0.0,0.0,0.0
11,0.0,0.0,0.0,0.0,0.0,0.0,0.0
13,0.0,0.0,0.0,0.0,0.0,0.0,0.0
15,0.0,0.0,0.0,0.0,0.0,0.0,0.0
17,0.0,0.0,0.0,0.0,0.0,0.0,0.0
19,0.0,0.0,0.0,0.0,0.0,0.0,0.0
21,0.0,0.0,0.0,0.0,0.0,0.0,0.0
23,0.0,0.0,0.0,0.0,0.0,0.0,0.0
25,0.0,0.0,0.0,0.0,0.0,0.0,0.0
27,0.0,0.0,0.0,0.0,0.0,0.0,0.0
29,0.0,0.0,0.0,0.0,0.0,0.0,0.0
31,0.0,0.0,0.0,0.0,0.0,0.0,0.0
33,0.0,0.0,0.0,0.0,0.0,0.0,0.0
35,0.0,0.0,0.0,0.0,0.0,0.0,0.0
37,0.0,0.0,0.0,0.0,0.0,0.0,0.0
39,0.0,0.0,0.0,0.0,0.0,0.0,0.0
41,0.0,0.0,0.0,0.0,0.0,0.0,0.0
43,0.0,0.0,0.0,0.0,0.0,0.0,0.0
45,0.0,0.0,0.0,0.0,0.0,0.0,0.0
47,0.0,0.0,0.0,0.0,0.0,0.0,0.0
49,0.0,0.0,0.0,0.0,0.0,0.0,0.0
51,0.0,0.0,0.0,0.0,0.0,0.0,0.0
53,0.0,0.0,0.0,0.0,0.0,0.0,0.0
55,0.0,0.0,0.0,0.0,0.0,0.0,0.0
57,0.0,0.0,0.0,0.0,0.0,0.0,0.0
59,0.0,0.0,0.0,0.0,0.0,0.0,0.0
61,0.0,0.0,0.0,0.0,0.0,0.0,0.0
63,0.0,0.0,0.0,0.0,0.0,0.0,0.0
65,0.0,0.0,0.0,0.0,0.0,0.0,0.0
67,0.0,0.0,0.0,0.0,0.0,0.0,0.0
69,0.0,0.0,0.0,0.0,0.0,0.0,0.0
71,0.0,0.0,0.0,0.0,0.0,0.0,0.0
74,0.0,0.0,0.0,0.0,0.0,0.0,0.0
76,0.0,0.0,0.0,0.0,0.0,0.0,0.0
78,0.0,0.0,0.0,0.0,0.0,0.0,0.0
80,0.0,0.0,0.0,0.0,0.0,0.0,0.0
81,0.0,0.0,0.0,0.0,0.0,0.0,0.0
83,0.0,0.0,0.0,0.0,0.0,0.0,0.0
85,0.0,0.0,0.0,0.0,0.0,0.0,0.0
87,0.0,0.0,0.0,0.0,0.0,0.0,0.0
89,0.0,0.0,0.0,0.0,0.0,0.0,0.0
90,0.0,0.0,0.0,0.0,0.0,0.0,0.0
92,0.0,0.0,0.0,0.0,0.0,0.0,0.0
94,0.0,0.0,0.0,0.0,0.0,0.0,0.0
96,0.0,0.0,0.0,0.0,0.0,0.0,0.0
98,0.114013671875,2.23046875,1.822509765625,415.4375,404.8125,418.3125,36.56640625
99,0.114013671875,2.23046875,1.822509765625,415.4375,404.8125,418.3125,36.56640625
101,7.999755859375,-8.0,7.999755859375,-2048.0,2047.9375,-2048.0,36.56640625
104,7.999755859375,-8.0,7.999755859375,-2048.0,2047.9375,-2048.0,36.56640625
106,-8.0,7.999755859375,7.999755859375,-2048.0,2047.9375,-2048.0,36.56640625
108,-8.0,7.999755859375,7.999755859375,-2048.0,2047.9375,-2048.0,36.56640625
110,-8.0,7.999755859375,7.999755859375,-2048.0,2047.9375,-2048.0,36.56640625
111,-0.533203125,0.049072265625,-0.11962890625,20.8125,-150.0625,-1.25,36.56640625
113,-0.533203125,0.049072265625,-0.11962890625,20.8125,-150.0625,-1.25,36.56640625
115,-0.53662109375,0.019775390625,-0.1240234375,23.875,-149.125,0.125,36.56640625
117,-0.53662109375,0.019775390625,-0.1240234375,23.875,-149.125,0.125,36.56640625
119,-0.541748046875,0.00048828125,-0.13818359375,27.6875,-148.125,3.5625,36.56640625
121,-0.541748046875,0.00048828125,-0.13818359375,27.6875,-148.125,3.5625,36.56640625
123,-0.541748046875,0.00048828125,-0.13818359375,27.6875,-148.125,3.5625,36.56640625
125,-0.549072265625,-0.010986328125,-0.15380859375,31.1875,-147.0625,8.8125,36.63671875
127,-0.549072265625,-0.010986328125,-0.15380859375,31.1875,-147.0625,8.8125,36.63671875
129,-0.561767578125,-0.01806640625,-0.167236328125,36.375,-146.5,14.1875,36.63671875
131,-0.561767578125,-0.01806640625,-0.167236328125,36.375,-146.5,14.1875,36.63671875
133,-0.580322265625,-0.023681640625,-0.178466796875,41.9375,-146.1875,19.375,36.63671875
135,-0.580322265625,-0.023681640625,-0.178466796875,41.9375,-146.1875,19.375,36.63671875
137,-0.60107421875,-0.02880859375,-0.189697265625,46.6875,-146.125,24.125,36.63671875
139,-0.60107421875,-0.02880859375,-0.189697265625,46.6875,-146.125,24.125,36.63671875
141,-0.620361328125,-0.0361328125,-0.20361328125,49.375,-146.0625,28.75,36.63671875
143,-0.620361328125,-0.0361328125,-0.20361328125,49.375,-146.0625,28.75,36.63671875
145,-0.620361328125,-0.0361328125,-0.20361328125,49.375,-146.0625,28.75,36.63671875
147,-0.62841796875,-0.045166015625,-0.2236328125,49.875,-145.8125,33.3125,36.63671875
149,-0.62841796875,-0.045166015625,-0.2236328125,49.875,-145.8125,33.3125,36.63671875
151,-0.623046875,-0.0517578125,-0.244140625,48.875,-145.75,37.75,36.63671875
153,-0.623046875,-0.0517578125,-0.244140625,48.875,-145.75,37.75,36.63671875
155,-0.608154296875,-0.065673828125,-0.2587890625,46.9375,-146.9375,42.25,36.63671875
157,-0.608154296875,-0.065673828125,-0.2587890625,46.9375,-146.9375,42.25,36.63671875
159,-0.590087890625,-0.0869140625,-0.263916015625,43.5625,-149.4375,47.0625,36.63671875
161,-0.590087890625,-0.0869140625,-0.263916015625,43.5625,-149.4375,47.0625,36.63671875
163,-0.590087890625,-0.0869140625,-0.263916015625,39.8125,-152.0625,55.4375,36.63671875
165,-0.5380859375,-0.085693359375,-0.2783203125,39.8125,-152.0625,55.4375,36.63671875
167,-0.5380859375,-0.085693359375,-0.2783203125,39.8125,-152.0625,55.4375,36.63671875
169,-0.53369140625,-0.086181640625,-0.332763671875,42.1875,-148.5,74.0,36.63671875
171,-0.53369140625,-0.086181640625,-0.332763671875,42.1875,-148.5,74.0,36.63671875
173,-0.56591796875,-0.09765625,-0.274658203125,48.3125,-150.0625,81.4375,36.63671875
175,-0.56591796875,-0.09765625,-0.274658203125,48.3125,-150.0625,81.4375,36.63671875
177,-0.521240234375,-0.083984375,-0.191162109375,50.375,-156.75,83.5,36.63671875
179,-0.521240234375,-0.083984375,-0.191162109375,50.375,-156.75,83.5,36.63671875
181,-0.498046875,-0.062255859375,-0.124267578125,48.5,-161.375,87.3125,36.63671875
183,-0.498046875,-0.062255859375,-0.124267578125,48.5,-161.375,87.3125,36.63671875
185,-0.498046875,-0.062255859375,-0.124267578125,48.5,-161.375,87.3125,36.63671875
187,-0.503173828125,-0.033935546875,-0.06005859375,48.625,-165.1875,91.6875,36.63671875
189,-0.503173828125,-0.033935546875,-0.06005859375,48.625,-165.1875,91.6875,36.63671875
191,-0.49951171875,-0.00146484375,-0.017333984375,49.5625,-169.4375,93.375,36.63671875
193,-0.49951171875,-0.00146484375,-0.017333984375,49.5625,-169.4375,93.375,36.63671875
195,-0.48583984375,0.037353515625,0.008544921875,49.75,-172.9375,93.125,36.63671875
197,-0.48583984375,0.037353515625,0.008544921875,49.75,-172.9375,93.125,36.63671875
199,-0.479248046875,0.08251953125,0.0244140625,50.125,-175.9375,93.0,36.63671875
201,-0.479248046875,0.08251953125,0.0244140625,50.125,-175.9375,93.0,36.63671875
202,-0.479248046875,0.08251953125,0.0244140625,50.125,-175.9375,93.0,36.63671875
204,-0.48583984375,0.12744140625,0.03564453125,50.9375,-177.625,93.375,36.63671875
206,-0.48583984375,0.12744140625,0.03564453125,50.9375,-177.625,93.375,36.63671875
208,-0.4970703125,0.165283203125,0.047607421875,51.125,-178.0,93.375,36.63671875
210,-0.4970703125,0.165283203125,0.047607421875,51.125,-178.0,93.375,36.63671875
213,-0.504150390625,0.2001953125,0.059326171875,50.0625,-177.9375,92.625,36.63671875
215,-0.504150390625,0.2001953125,0.059326171875,50.0625,-177.9375,92.625,36.63671875
217,-0.50732421875,0.224609375,0.073974609375,47.5625,-178.125,91.375,36.63671875
219,-0.50732421875,0.224609375,0.073974609375,47.5625,-178.125,91.375,36.63671875
221,-0.517822265625,0.240966796875,0.095458984375,42.6875,-178.25,89.875,36.63671875
223,-0.517822265625,0.240966796875,0.095458984375,42.6875,-178.25,89.875,36.63671875
225,-0.517822265625,0.240966796875,0.095458984375,42.6875,-178.25,89.875,36.63671875
227,-0.53564453125,0.2470703125,0.124755859375,35.8125,-178.5625,87.9375,36.63671875
229,-0.53564453125,0.2470703125,0.124755859375,35.8125,-178.5625,87.9375,36.63671875
231,-0.55810546875,0.238037109375,0.16650390625,27.125,-178.5625,84.9375,36.63671875
232,-0.55810546875,0.238037109375,0.16650390625,27.125,-178.5625,84.9375,36.63671875
235,-0.581298828125,0.22802734375,0.220458984375,16.8125,-178.125,81.0625,36.63671875
237,-0.581298828125,0.22802734375,0.220458984375,16.8125,-178.125,81.0625,36.63671875
239,-0.60400390625,0.22607421875,0.281494140625,5.0,-177.8125,76.1875,36.63671875
241,-0.60400390625,0.22607421875,0.281494140625,5.0,-177.8125,76.1875,36.63671875
243,-0.60400390625,0.22607421875,0.343994140625,-6.3125,-177.4375,70.0,36.63671875
245,-0.625732421875,0.235595703125,0.34619140625,-6.3125,-177.4375,70.0,36.63671875
247,-0.625732421875,0.235595703125,0.34619140625,-6.3125,-177.4375,70.0,36.63671875
248,-0.64990234375,0.24609375,0.407958984375,-16.375,-176.75,62.625,36.63671875
250,-0.64990234375,0.24609375,0.407958984375,-16.375,-176.75,62.625,36.63671875
252,-0.677734375,0.24755859375,0.4638671875,-24.625,-175.875,55.1875,36.63671875
254,-0.677734375,0.24755859375,0.4638671875,-24.625,-175.875,55.1875,36.63671875
257,-0.708251953125,0.23828125,0.511962890625,-30.625,-174.4375,48.6875,36.63671875
259,-0.708251953125,0.23828125,0.511962890625,-30.625,-174.4375,48.6875,36.63671875
261,-0.74462890625,0.226806640625,0.555908203125,-34.75,-172.6875,43.125,36.63671875
263,-0.74462890625,0.226806640625,0.555908203125,-34.75,-172.6875,43.125,36.63671875
265,-0.74462890625,0.226806640625,0.60595703125,-38.5,-170.8125,38.8125,36.63671875
267,-0.791748046875,0.224365234375,0.60595703125,-38.5,-170.8125,38.8125,36.62890625
269,-0.791748046875,0.224365234375,0.60595703125,-38.5,-170.8125,38.8125,36.62890625
271,-0.847900390625,0.22119140625,0.661376953125,-42.3125,-168.25,36.0625,36.62890625
273,-0.847900390625,0.22119140625,0.661376953125,-42.3125,-168.25,36.0625,36.62890625
275,-0.900390625,0.211181640625,0.719482421875,-46.3125,-164.25,35.0,36.62890625
277,-0.900390625,0.211181640625,0.719482421875,-46.3125,-164.25,35.0,36.62890625
279,-0.941162109375,0.20263671875,0.782470703125,-50.75,-158.5,36.0625,36.62890625
281,-0.941162109375,0.20263671875,0.782470703125,-50.75,-158.5,36.0625,36.62890625
283,-0.983642578125,0.209716796875,0.85009765625,-55.3125,-151.1875,38.125,36.62890625
285,-0.983642578125,0.209716796875,0.85009765625,-55.3125,-151.1875,38.125,36.62890625
287,-0.983642578125,0.209716796875,0.85009765625,-55.3125,-151.1875,38.125,36.62890625
289,-1.025390625,0.22802734375,0.91015625,-60.1875,-141.9375,40.375,36.62890625
291,-1.025390625,0.22802734375,0.91015625,-60.1875,-141.9375,40.375,36.62890625
292,-1.060791015625,0.261474609375,0.962158203125,-65.3125,-131.0625,41.9375,36.62890625
294,-1.060791015625,0.261474609375,0.962158203125,-65.3125,-131.0625,41.9375,36.62890625
296,-1.09130859375,0.304443359375,1.001953125,-70.0625,-118.8125,42.5625,36.62890625
298,-1.09130859375,0.304443359375,1.001953125,-70.0625,-118.8125,42.5625,36.62890625
301,-1.113525390625,0.344482421875,1.030517578125,-73.8125,-106.3125,42.25,36.62890625
303,-1.113525390625,0.344482421875,1.030517578125,-73.8125,-106.3125,42.25,36.62890625
305,-1.113525390625,0.344482421875,1.030517578125,-73.8125,-106.3125,40.75,36.62890625
307,-1.1181640625,0.374267578125,1.05126953125,-76.0,-93.3125,40.75,36.62890625
308,-1.1181640625,0.374267578125,1.05126953125,-76.0,-93.3125,40.75,36.62890625
310,-1.106201171875,0.406494140625,1.066162109375,-76.625,-79.9375,37.6875,36.62890625
312,-1.106201171875,0.406494140625,1.066162109375,-76.625,-79.9375,37.6875,36.62890625
314,-1.099853515625,0.4296875,1.080078125,-74.9375,-67.75,33.5625,36.62890625
316,-1.099853515625,0.4296875,1.080078125,-74.9375,-67.75,33.5625,36.62890625
318,-1.1005859375,0.441162109375,1.082275390625,-70.8125,-57.25,29.1875,36.62890625
320,-1.1005859375,0.441162109375,1.082275390625,-70.8125,-57.25,29.1875,36.62890625
323,-1.1005859375,0.441162109375,1.082275390625,-65.5,-46.625,24.1875,36.62890625
325,-1.101318359375,0.437255859375,1.0712890625,-65.5,-46.625,24.1875,36.62890625
326,-1.101318359375,0.437255859375,1.0712890625,-65.5,-46.625,24.1875,36.62890625
328,-1.11669921875,0.42041015625,1.037109375,-59.5625,-35.8125,18.625,36.62890625
330,-1.11669921875,0.42041015625,1.037109375,-59.5625,-35.8125,18.625,36.62890625
332,-1.142333984375,0.3896484375,0.98095703125,-54.1875,-25.375,13.125,36.62890625
334,-1.142333984375,0.3896484375,0.98095703125,-54.1875,-25.375,13.125,36.62890625
336,-1.172119140625,0.3525390625,0.91455078125,-50.1875,-16.125,8.4375,36.62890625
338,-1.172119140625,0.3525390625,0.91455078125,-50.1875,-16.125,8.4375,36.62890625
340,-1.172119140625,0.3525390625,0.845703125,-48.3125,-7.8125,5.1875,36.62890625
342,-1.19384765625,0.307861328125,0.845703125,-48.3125,-7.8125,5.1875,36.62890625
345,-1.19384765625,0.307861328125,0.845703125,-48.3125,-0.5,3.75,36.62890625
346,-1.207275390625,0.269775390625,0.783935546875,-49.0625,-0.5,3.75,36.62890625
348,-1.207275390625,0.269775390625,0.783935546875,-49.0625,-0.5,3.75,36.62890625
350,-1.215576171875,0.242919921875,0.7333984375,-51.875,5.75,3.375,36.62890625
352,-1.215576171875,0.242919921875,0.7333984375,-51.875,5.75,3.375,36.62890625
354,-1.225830078125,0.2353515625,0.702880859375,-55.25,10.375,3.3125,36.62890625
356,-1.225830078125,0.2353515625,0.702880859375,-55.25,10.375,3.3125,36.62890625
358,-1.225830078125,0.23486328125,0.6865234375,-58.875,14.125,4.125,36.62890625
360,-1.23486328125,0.23486328125,0.6865234375,-58.875,14.125,4.125,36.62890625
362,-1.23486328125,0.23486328125,0.6865234375,-58.875,14.125,4.125,36.62890625
364,-1.224365234375,0.2373046875,0.67041015625,-61.3125,18.0625,5.0,36.62890625
366,-1.224365234375,0.2373046875,0.67041015625,-61.3125,18.0625,5.0,36.62890625
368,-1.191650390625,0.2529296875,0.654296875,-61.8125,22.3125,5.9375,36.62890625
370,-1.191650390625,0.2529296875,0.654296875,-61.8125,22.3125,5.9375,36.62890625
372,-1.1533203125,0.295166015625,0.641357421875,-59.875,26.8125,7.125,36.62890625
374,-1.1533203125,0.295166015625,0.641357421875,-59.875,26.8125,7.125,36.62890625
376,-1.1533203125,0.295166015625,0.62353515625,-54.8125,30.875,7.625,36.62890625
378,-1.119873046875,0.3505859375,0.62353515625,-54.8125,30.875,7.625,36.62890625
380,-1.119873046875,0.3505859375,0.62353515625,-54.8125,30.875,7.625,36.62890625
382,-1.09375,0.399169921875,0.604248046875,-48.125,34.5625,6.6875,36.62890625
384,-1.09375,0.399169921875,0.604248046875,-48.125,34.5625,6.6875,36.62890625
386,-1.060302734375,0.445068359375,0.5869140625,-40.4375,37.875,4.5,36.62890625
387,-1.060302734375,0.445068359375,0.5869140625,-40.4375,37.875,4.5,36.62890625
390,-1.02392578125,0.476318359375,0.562744140625,-32.5625,41.0625,0.5625,36.62890625
392,-1.02392578125,0.476318359375,0.562744140625,-32.5625,41.0625,0.5625,36.62890625
394,-1.0048828125,0.493896484375,0.533203125,-26.0,44.0625,-5.125,36.62890625
396,-1.0048828125,0.493896484375,0.533203125,-26.0,44.0625,-5.125,36.62890625
398,-1.0048828125,0.493896484375,0.533203125,-26.0,46.9375,-12.125,36.62890625
400,-1.0,0.49365234375,0.502685546875,-21.4375,46.9375,-12.125,36.62890625
402,-1.0,0.49365234375,0.502685546875,-21.4375,46.9375,-12.125,36.62890625
403,-1.004150390625,0.474853515625,0.471435546875,-19.0,50.1875,-19.8125,36.62890625
405,-1.004150390625,0.474853515625,0.471435546875,-19.0,50.1875,-19.8125,36.62890625
407,-1.0146484375,0.439453125,0.435302734375,-18.375,53.25,-27.0625,36.671875
409,-1.0146484375,0.439453125,0.435302734375,-18.375,53.25,-27.0625,36.671875
411,-1.028564453125,0.398193359375,0.39794921875,-19.25,56.5625,-33.375,36.671875
414,-1.028564453125,0.398193359375,0.39794921875,-19.25,56.5625,-33.375,36.671875
415,-1.028564453125,0.398193359375,0.39794921875,-19.25,56.5625,-33.375,36.671875
417,-1.04443359375,0.36376953125,0.355712890625,-20.625,59.9375,-38.625,36.671875
419,-1.04443359375,0.36376953125,0.355712890625,-20.625,59.9375,-38.625,36.671875
421,-1.06494140625,0.33056640625,0.312744140625,-22.5625,63.3125,-42.8125,36.671875
423,-1.06494140625,0.33056640625,0.312744140625,-22.5625,63.3125,-42.8125,36.671875
425,-1.083740234375,0.298828125,0.27734375,-24.0,66.125,-45.3125,36.671875
427,-1.083740234375,0.298828125,0.27734375,-24.0,66.125,-45.3125,36.671875
429,-1.091796875,0.271728515625,0.246337890625,-24.6875,67.9375,-46.125,36.671875
431,-1.091796875,0.271728515625,0.246337890625,-24.6875,67.9375,-46.125,36.671875
433,-1.091796875,0.271728515625,0.246337890625,-24.6875,67.9375,-46.125,36.671875
435,-1.09326171875,0.2509765625,0.21435546875,-24.625,68.9375,-45.5625,36.671875
437,-1.09326171875,0.2509765625,0.21435546875,-24.625,68.9375,-45.5625,36.671875
439,-1.0966796875,0.23974609375,0.185791015625,-23.9375,69.1875,-43.5625,36.671875
441,-1.0966796875,0.23974609375,0.185791015625,-23.9375,69.1875,-43.5625,36.671875
443,-1.10888671875,0.2421875,0.1640625,-22.8125,68.375,-39.75,36.671875
445,-1.10888671875,0.2421875,0.1640625,-22.8125,68.375,-39.75,36.671875
447,-1.10888671875,0.3046875,0.150390625,-21.3125,67.3125,-34.375,36.671875
449,-1.12451171875,0.2509765625,0.150390625,-21.3125,67.3125,-34.375,36.671875
450,-1.12451171875,0.2509765625,0.150390625,-21.3125,67.3125,-34.375,36.671875
452,-1.1279296875,0.254638671875,0.13916015625,-18.9375,66.5625,-28.25,36.671875
455,-1.1279296875,0.254638671875,0.13916015625,-18.9375,66.5625,-28.25,36.671875
457,-1.11767578125,0.256103515625,0.13330078125,-15.3125,66.8125,-22.625,36.671875
459,-1.11767578125,0.256103515625,0.13330078125,-15.3125,66.8125,-22.625,36.671875
461,-1.1044921875,0.259765625,0.134033203125,-10.875,67.6875,-17.75,36.671875
463,-1.1044921875,0.259765625,0.134033203125,-10.875,67.6875,-17.75,36.671875
465,-1.096923828125,0.26416015625,0.139404296875,-5.875,68.75,-14.0625,36.671875
467,-1.096923828125,0.26416015625,0.139404296875,-5.875,68.75,-14.0625,36.671875
469,-1.096923828125,0.26318359375,0.14794921875,-0.875,69.875,-11.1875,36.671875
471,-1.090087890625,0.26318359375,0.14794921875,-0.875,69.875,-11.1875,36.671875
473,-1.090087890625,0.26318359375,0.14794921875,-0.875,69.875,-11.1875,36.671875
475,-1.079833984375,0.26025390625,0.1552734375,3.3125,70.9375,-9.3125,36.671875
477,-1.079833984375,0.26025390625,0.1552734375,3.3125,70.9375,-9.3125,36.671875
479,-1.06787109375,0.254638671875,0.15771484375,6.9375,71.6875,-8.375,36.671875
481,-1.06787109375,0.254638671875,0.15771484375,6.9375,71.6875,-8.375,36.671875
483,-1.060546875,0.2451171875,0.156005859375,9.6875,72.375,-7.9375,36.671875
485,-1.060546875,0.2451171875,0.156005859375,9.6875,72.375,-7.9375,36.671875
487,-1.059326171875,0.235107421875,0.150146484375,11.5,73.5625,-7.25,36.671875
489,-1.059326171875,0.235107421875,0.150146484375,11.5,73.5625,-7.25,36.671875
491,-1.059326171875,0.235107421875,0.150146484375,11.5,73.5625,-7.25,36.671875
493,-1.056640625,0.22412109375,0.140625,12.625,75.125,-6.125,36.671875
495,-1.056640625,0.22412109375,0.140625,12.625,75.125,-6.125,36.671875
496,-1.048095703125,0.21484375,0.130859375,13.125,76.625,-4.75,36.671875
498,-1.048095703125,0.21484375,0.130859375,13.125,76.625,-4.75,36.671875
500,-1.033203125,0.208251953125,0.12060546875,13.0625,77.4375,-4.0,36.671875
503,-1.033203125,0.208251953125,0.12060546875,13.0625,77.4375,-4.0,36.671875
505,-1.03564453125,0.205078125,0.111572265625,12.8125,77.625,-2.875,36.671875
507,-1.03564453125,0.205078125,0.111572265625,12.8125,77.625,-2.875,36.671875
508,-1.03564453125,0.205078125,0.111572265625,12.8125,78.0,-1.0625,36.671875
510,-1.03466796875,0.205810546875,0.10986328125,12.0625,78.0,-1.0625,36.671875
512,-1.03466796875,0.205810546875,0.10986328125,12.0625,78.0,-1.0625,36.671875
514,-1.029296875,0.208740234375,0.109619140625,11.125,78.5625,0.875,36.671875
516,-1.029296875,0.208740234375,0.109619140625,11.125,78.5625,0.875,36.671875
518,-1.0166015625,0.211181640625,0.110107421875,10.5,79.25,2.3125,36.671875
520,-1.0166015625,0.211181640625,0.110107421875,10.5,79.25,2.3125,36.671875
522,-1.001953125,0.2158203125,0.109130859375,10.125,80.4375,3.25,36.671875
524,-1.001953125,0.2158203125,0.109130859375,10.125,80.4375,3.25,36.671875
526,-1.001953125,0.2158203125,0.10693359375,9.8125,81.875,3.6875,36.671875
528,-0.99072265625,0.221435546875,0.10693359375,9.8125,81.875,3.6875,36.671875
530,-0.99072265625,0.221435546875,0.10693359375,9.8125,81.875,3.6875,36.671875
532,-0.9853515625,0.228515625,0.10498046875,9.3125,82.75,3.875,36.671875
534,-0.9853515625,0.228515625,0.10498046875,9.3125,82.75,3.875,36.671875
536,-0.97509765625,0.2314453125,0.102783203125,8.1875,83.3125,3.75,36.671875
538,-0.97509765625,0.2314453125,0.102783203125,8.1875,83.3125,3.75,36.671875
540,-0.96435546875,0.224609375,0.0966796875,6.6875,83.875,3.25,36.671875
542,-0.96435546875,0.224609375,0.0966796875,6.6875,83.875,3.25,36.671875
544,-0.96435546875,0.224609375,0.0966796875,6.6875,83.875,3.25,36.671875
546,-0.9521484375,0.21630859375,0.08740234375,5.375,84.875,2.625,36.671875
548,-0.9521484375,0.21630859375,0.08740234375,5.375,84.875,2.625,36.671875
550,-0.94189453125,0.213623046875,0.076416015625,4.5625,85.9375,2.0,36.65234375
552,-0.94189453125,0.213623046875,0.076416015625,4.5625,85.9375,2.0,36.65234375
554,-0.931396484375,0.208740234375,0.062255859375,4.0,86.9375,1.4375,36.65234375
556,-0.931396484375,0.208740234375,0.062255859375,4.0,86.9375,1.4375,36.65234375
558,-0.924560546875,0.19873046875,0.044921875,3.8125,87.8125,1.125,36.65234375
559,-0.924560546875,0.19873046875,0.044921875,3.8125,87.8125,1.125,36.65234375
561,-0.924560546875,0.19873046875,0.044921875,3.8125,87.8125,1.125,36.65234375
563,-0.921142578125,0.183349609375,0.031005859375,3.5625,88.8125,0.625,36.65234375
565,-0.921142578125,0.183349609375,0.031005859375,3.5625,88.8125,0.625,36.65234375
567,-0.921630859375,0.172119140625,0.014404296875,2.375,90.125,0.25,36.65234375
569,-0.921630859375,0.172119140625,0.014404296875,2.375,90.125,0.25,36.65234375
572,-0.927978515625,0.1689453125,-0.00634765625,0.0625,92.0,0.1875,36.65234375
574,-0.927978515625,0.1689453125,-0.00634765625,0.0625,92.0,0.1875,36.65234375
575,-0.927001953125,0.171875,-0.0283203125,-3.0625,94.3125,0.0,36.65234375
577,-0.927001953125,0.171875,-0.0283203125,-3.0625,94.3125,0.0,36.65234375
579,-0.927001953125,0.171875,-0.0283203125,-6.25,96.25,-0.5,36.65234375
581,-0.9248046875,0.175537109375,-0.056640625,-6.25,96.25,-0.5,36.65234375
583,-0.9248046875,0.175537109375,-0.056640625,-6.25,96.25,-0.5,36.65234375
585,-0.921875,0.183837890625,-0.082763671875,-9.375,97.9375,-1.4375,36.65234375
587,-0.921875,0.183837890625,-0.082763671875,-9.375,97.9375,-1.4375,36.65234375
590,-0.914794921875,0.195556640625,-0.109130859375,-12.0625,99.3125,-2.4375,36.65234375
592,-0.914794921875,0.195556640625,-0.109130859375,-12.0625,99.3125,-2.4375,36.65234375
594,-0.905029296875,0.2080078125,-0.13330078125,-14.5625,100.25,-3.625,36.65234375
596,-0.905029296875,0.2080078125,-0.13330078125,-14.5625,100.25,-3.625,36.65234375
598,-0.894287109375,0.218505859375,-0.155517578125,-16.25,100.5625,-4.1875,36.65234375
600,-0.894287109375,0.218505859375,-0.155517578125,-16.25,100.5625,-4.1875,36.65234375
602,-0.881591796875,0.230712890625,-0.17431640625,-16.75,99.75,-4.1875,36.65234375
604,-0.881591796875,0.230712890625,-0.17431640625,-16.75,99.75,-4.1875,36.65234375
606,-0.881591796875,0.230712890625,-0.17431640625,-16.75,99.75,-4.1875,36.65234375
608,-0.868896484375,0.247802734375,-0.18408203125,-16.875,98.125,-4.375,36.65234375
610,-0.868896484375,0.247802734375,-0.18408203125,-16.875,98.125,-4.375,36.65234375
611,-0.85595703125,0.26025390625,-0.1904296875,-16.25,96.4375,-4.5625,36.65234375
613,-0.85595703125,0.26025390625,-0.1904296875,-16.25,96.4375,-4.5625,36.65234375
615,-0.846923828125,0.262939453125,-0.1904296875,-15.5,94.5,-5.0,36.65234375
618,-0.846923828125,0.262939453125,-0.1904296875,-15.5,94.5,-5.0,36.65234375
620,-0.841796875,0.2666015625,-0.190673828125,-14.5625,92.0,-5.3125,36.65234375
622,-0.841796875,0.2666015625,-0.190673828125,-14.5625,92.0,-5.3125,36.65234375
623,-0.841796875,0.2666015625,-0.190673828125,-14.5625,92.0,-5.3125,36.65234375
625,-0.834228515625,0.272705078125,-0.188720703125,-13.4375,89.3125,-5.5625,36.65234375
627,-0.834228515625,0.272705078125,-0.188720703125,-13.4375,89.3125,-5.5625,36.65234375
633,-0.8310546875,0.27783203125,-0.19091796875,-11.625,86.625,-5.8125,36.65234375
634,-0.833984375,0.27685546875,-0.198486328125,-9.3125,84.625,-6.75,36.65234375
637,-0.833984375,0.27685546875,-0.198486328125,-9.3125,84.625,-6.75,36.65234375
638,-0.846923828125,0.266845703125,-0.205810546875,-6.9375,83.4375,-7.375,36.65234375
640,-0.846923828125,0.266845703125,-0.205810546875,-6.9375,83.4375,-7.375,36.65234375
643,-0.861572265625,0.2529296875,-0.20703125,-4.8125,81.9375,-8.3125,36.65234375
645,-0.861572265625,0.2529296875,-0.20703125,-4.8125,81.9375,-8.3125,36.65234375
647,-0.879638671875,0.240966796875,-0.197509765625,-3.1875,80.5625,-8.8125,36.65234375
649,-0.879638671875,0.240966796875,-0.197509765625,-3.1875,80.5625,-8.8125,36.65234375
651,-0.897705078125,0.216064453125,-0.180908203125,-2.0625,78.875,-9.3125,36.65234375
653,-0.897705078125,0.216064453125,-0.180908203125,-2.0625,78.875,-9.3125,36.65234375
654,-0.897705078125,0.216064453125,-0.180908203125,-2.0625,78.875,-9.3125,36.65234375
656,-0.9052734375,0.189697265625,-0.1689453125,-1.6875,77.875,-9.9375,36.65234375
658,-0.9052734375,0.189697265625,-0.1689453125,-1.6875,77.875,-9.9375,36.65234375
661,-0.9111328125,0.16845703125,-0.161865234375,-1.75,77.8125,-10.1875,36.65234375
663,-0.9111328125,0.16845703125,-0.161865234375,-1.75,77.8125,-10.1875,36.65234375
665,-0.91357421875,0.152099609375,-0.158935546875,-1.4375,78.375,-9.4375,36.65234375
667,-0.91357421875,0.152099609375,-0.158935546875,-1.4375,78.375,-9.4375,36.65234375
669,-0.91357421875,0.147705078125,-0.157958984375,-0.5625,79.125,-7.875,36.65234375
671,-0.91357421875,0.147705078125,-0.157958984375,-0.5625,79.125,-7.875,36.65234375
673,-0.907958984375,0.150146484375,-0.156494140625,1.0625,80.6875,-5.5,36.65234375
675,-0.907958984375,0.150146484375,-0.156494140625,1.0625,80.6875,-5.5,36.65234375
677,-0.907958984375,0.150146484375,-0.156494140625,1.0625,82.9375,-3.125,36.65234375
679,-0.902099609375,0.1572265625,-0.1572265625,3.75,82.9375,-3.125,36.65234375
681,-0.902099609375,0.1572265625,-0.1572265625,3.75,82.9375,-3.125,36.65234375
682,-0.89501953125,0.175048828125,-0.160400390625,7.6875,85.0625,-0.4375,36.65234375
684,-0.89501953125,0.175048828125,-0.160400390625,7.6875,85.0625,-0.4375,36.65234375
687,-0.8818359375,0.1943359375,-0.16064453125,12.5625,87.3125,1.9375,36.65234375
689,-0.8818359375,0.1943359375,-0.16064453125,12.5625,87.3125,1.9375,36.65234375
691,-0.8701171875,0.21142578125,-0.162353515625,17.0,89.125,3.8125,36.671875
693,-0.8701171875,0.21142578125,-0.162353515625,17.0,89.125,3.8125,36.671875
695,-0.8701171875,0.22314453125,-0.169677734375,20.4375,90.9375,4.9375,36.671875
697,-0.86279296875,0.22314453125,-0.169677734375,20.4375,90.9375,4.9375,36.671875
698,-0.86279296875,0.22314453125,-0.169677734375,20.4375,90.9375,4.9375,36.671875
700,-0.857177734375,0.2294921875,-0.182373046875,23.0625,92.5625,4.75,36.671875
702,-0.857177734375,0.2294921875,-0.182373046875,23.0625,92.5625,4.75,36.671875
704,-0.851318359375,0.231689453125,-0.201416015625,24.875,94.3125,4.0,36.671875
706,-0.851318359375,0.231689453125,-0.201416015625,24.875,94.3125,4.0,36.671875
709,-0.845703125,0.227783203125,-0.226318359375,26.5,96.0,2.25,36.671875
711,-0.845703125,0.227783203125,-0.226318359375,26.5,96.0,2.25,36.671875
712,-0.840576171875,0.22265625,-0.251708984375,27.5625,97.25,0.625,36.671875
714,-0.840576171875,0.22265625,-0.251708984375,27.5625,97.25,0.625,36.671875
716,-0.840576171875,0.22265625,-0.251708984375,27.5625,97.25,0.625,36.671875
718,-0.836669921875,0.213134765625,-0.271728515625,27.125,97.625,-1.375,36.671875
720,-0.836669921875,0.213134765625,-0.271728515625,27.125,97.625,-1.375,36.671875
722,-0.8330078125,0.197998046875,-0.294189453125,25.5625,97.1875,-3.625,36.671875
724,-0.8330078125,0.197998046875,-0.294189453125,25.5625,97.1875,-3.625,36.671875
726,-0.827880859375,0.177490234375,-0.32080078125,23.125,95.875,-6.0,36.671875
728,-0.827880859375,0.177490234375,-0.32080078125,23.125,95.875,-6.0,36.671875
730,-0.827880859375,0.177490234375,-0.32080078125,23.125,95.875,-6.0,36.671875
732,-0.82421875,0.15625,-0.341552734375,20.375,93.875,-8.4375,36.671875
734,-0.82421875,0.15625,-0.341552734375,20.375,93.875,-8.4375,36.671875
736,-0.822265625,0.142822265625,-0.36083984375,17.8125,91.4375,-10.625,36.671875
738,-0.822265625,0.142822265625,-0.36083984375,17.8125,91.4375,-10.625,36.671875
740,-0.816650390625,0.134033203125,-0.37353515625,15.5,88.3125,-12.4375,36.671875
742,-0.816650390625,0.134033203125,-0.37353515625,15.5,88.3125,-12.4375,36.671875
744,-0.8115234375,0.128173828125,-0.378173828125,13.125,85.0625,-13.875,36.671875
746,-0.8115234375,0.128173828125,-0.378173828125,13.125,85.0625,-13.875,36.671875
748,-0.8115234375,0.128173828125,-0.378173828125,13.125,81.5,-15.125,36.671875
750,-0.811279296875,0.12548828125,-0.380615234375,10.25,81.5,-15.125,36.671875
751,-0.811279296875,0.12548828125,-0.380615234375,10.25,81.5,-15.125,36.671875
753,-0.814453125,0.12548828125,-0.3759765625,7.25,78.3125,-15.9375,36.671875
756,-0.814453125,0.12548828125,-0.3759765625,7.25,78.3125,-15.9375,36.671875
758,-0.817138671875,0.12841796875,-0.368408203125,4.0625,76.1875,-16.6875,36.671875
759,-0.817138671875,0.12841796875,-0.368408203125,4.0625,76.1875,-16.6875,36.671875
761,-0.8154296875,0.12744140625,-0.362060546875,1.25,74.625,-16.875,36.671875
763,-0.8154296875,0.12744140625,-0.362060546875,1.25,74.625,-16.875,36.671875
765,-0.8154296875,0.12744140625,-0.362060546875,1.25,74.625,-16.5625,36.671875
767,-0.818603515625,0.127685546875,-0.353515625,-1.625,72.875,-16.5625,36.671875
769,-0.818603515625,0.127685546875,-0.353515625,-1.625,72.875,-16.5625,36.671875
771,-0.826904296875,0.1328125,-0.3447265625,-5.1875,71.625,-16.6875,36.671875
773,-0.826904296875,0.1328125,-0.3447265625,-5.1875,71.625,-16.6875,36.671875
775,-0.829833984375,0.138671875,-0.338623046875,-8.625,70.3125,-16.75,36.671875
777,-0.829833984375,0.138671875,-0.338623046875,-8.625,70.3125,-16.75,36.671875
779,-0.829833984375,0.14501953125,-0.329833984375,-11.875,69.75,-16.1875,36.671875
781,-0.829833984375,0.14501953125,-0.329833984375,-11.875,69.75,-16.1875,36.671875
783,-0.831787109375,0.1533203125,-0.323486328125,-14.125,69.5625,-15.6875,36.671875
785,-0.831787109375,0.1533203125,-0.323486328125,-14.125,69.5625,-15.6875,36.671875
787,-0.831787109375,0.1533203125,-0.323486328125,-14.125,69.5625,-15.6875,36.671875
789,-0.831787109375,0.158447265625,-0.317626953125,-15.6875,69.875,-14.9375,36.671875
791,-0.831787109375,0.158447265625,-0.317626953125,-15.6875,69.875,-14.9375,36.671875
793,-0.826171875,0.164794921875,-0.31103515625,-16.625,70.75,-13.75,36.671875
795,-0.826171875,0.164794921875,-0.31103515625,-16.625,70.75,-13.75,36.671875
797,-0.8193359375,0.169677734375,-0.309814453125,-16.75,71.9375,-12.0,36.671875
799,-0.8193359375,0.169677734375,-0.309814453125,-16.75,71.9375,-12.0,36.671875
801,-0.814208984375,0.17138671875,-0.314453125,-16.1875,74.0625,-10.1875,36.671875
803,-0.814208984375,0.17138671875,-0.314453125,-16.1875,74.0625,-10.1875,36.671875
805,-0.814208984375,0.17138671875,-0.314453125,-16.1875,74.0625,-10.1875,36.671875
807,-0.806884765625,0.171875,-0.32568359375,-14.6875,76.125,-8.375,36.671875
809,-0.806884765625,0.171875,-0.32568359375,-14.6875,76.125,-8.375,36.671875
811,-0.796630859375,0.17138671875,-0.341064453125,-11.625,78.4375,-6.25,36.671875
813,-0.796630859375,0.17138671875,-0.341064453125,-11.625,78.4375,-6.25,36.671875
815,-0.783447265625,0.171142578125,-0.35986328125,-6.9375,80.5625,-4.375,36.671875
817,-0.783447265625,0.171142578125,-0.35986328125,-6.9375,80.5625,-4.375,36.671875
819,-0.783447265625,0.171142578125,-0.38037109375,-1.5625,81.875,-2.9375,36.671875
821,-0.76220703125,0.171630859375,-0.38037109375,-1.5625,81.875,-2.9375,36.671875
823,-0.76220703125,0.171630859375,-0.400634765625,3.6875,82.9375,-1.625,36.671875
825,-0.74609375,0.172119140625,-0.400634765625,3.6875,82.9375,-1.625,36.671875
827,-0.74609375,0.172119140625,-0.400634765625,3.6875,82.9375,-1.625,36.671875
829,-0.742431640625,0.171142578125,-0.42431640625,7.875,83.5,-0.4375,36.671875
831,-0.742431640625,0.171142578125,-0.42431640625,7.875,83.5,-0.4375,36.671875
833,-0.738525390625,0.162109375,-0.44482421875,11.5,83.625,0.6875,36.671875
835,-0.738525390625,0.162109375,-0.44482421875,11.5,83.625,0.6875,36.671875
836,-0.7265625,0.152099609375,-0.463134765625,14.0,83.125,1.3125,36.671875
838,-0.7265625,0.152099609375,-0.463134765625,14.0,83.125,1.3125,36.671875
840,-0.7265625,0.152099609375,-0.463134765625,14.0,83.125,1.3125,36.671875
842,-0.71533203125,0.144775390625,-0.484130859375,14.625,81.9375,1.375,36.671875
845,-0.71533203125,0.144775390625,-0.484130859375,14.625,81.9375,1.375,36.671875
847,-0.702880859375,0.135009765625,-0.499755859375,14.0,79.5625,1.0,36.671875
849,-0.702880859375,0.135009765625,-0.499755859375,14.0,79.5625,1.0,36.671875
850,-0.690185546875,0.12646484375,-0.515380859375,12.6875,75.6875,0.1875,36.671875
852,-0.690185546875,0.12646484375,-0.515380859375,12.6875,75.6875,0.1875,36.671875
854,-0.679443359375,0.119873046875,-0.525146484375,11.0625,70.8125,-0.8125,36.671875
856,-0.679443359375,0.119873046875,-0.525146484375,11.0625,70.8125,-0.8125,36.671875
858,-0.679443359375,0.119873046875,-0.525146484375,11.0625,70.8125,-0.8125,36.671875
861,-0.67529296875,0.115478515625,-0.52734375,9.125,65.6875,-1.9375,36.671875
863,-0.67529296875,0.115478515625,-0.52734375,9.125,65.6875,-1.9375,36.671875
865,-0.681396484375,0.116455078125,-0.523193359375,7.25,60.625,-3.375,36.671875
867,-0.681396484375,0.116455078125,-0.523193359375,7.25,60.625,-3.375,36.671875
869,-0.69091796875,0.120361328125,-0.511474609375,5.125,56.625,-4.9375,36.671875
871,-0.69091796875,0.120361328125,-0.511474609375,5.125,56.625,-4.9375,36.671875
873,-0.697509765625,0.121337890625,-0.495849609375,3.125,53.6875,-6.3125,36.671875
875,-0.697509765625,0.121337890625,-0.495849609375,3.125,53.6875,-6.3125,36.671875
877,-0.7021484375,0.119384765625,-0.480712890625,1.0625,51.9375,-7.5,36.671875
879,-0.7021484375,0.119384765625,-0.480712890625,1.0625,51.9375,-7.5,36.671875
881,-0.7021484375,0.119384765625,-0.4658203125,-1.25,51.0,-8.5,36.671875
882,-0.709228515625,0.12158203125,-0.4658203125,-1.25,51.0,-8.5,36.671875
885,-0.709228515625,0.12158203125,-0.4658203125,-1.25,51.0,-8.5,36.671875
887,-0.7177734375,0.126953125,-0.45068359375,-3.4375,51.0625,-9.0625,36.671875
888,-0.7177734375,0.126953125,-0.45068359375,-3.4375,51.0625,-9.0625,36.671875
891,-0.724853515625,0.134521484375,-0.438232421875,-5.1875,52.3125,-9.4375,36.671875
893,-0.724853515625,0.134521484375,-0.438232421875,-5.1875,52.3125,-9.4375,36.671875
895,-0.72998046875,0.141845703125,-0.430908203125,-6.375,54.6875,-9.5625,36.671875
897,-0.72998046875,0.141845703125,-0.430908203125,-6.375,54.6875,-9.5625,36.671875
899,-0.73388671875,0.145751953125,-0.426025390625,-7.0,57.75,-9.1875,36.671875
901,-0.73388671875,0.145751953125,-0.426025390625,-7.0,57.75,-9.1875,36.671875
902,-0.73388671875,0.145751953125,-0.426025390625,-7.0,57.75,-9.1875,36.671875
904,-0.73779296875,0.148193359375,-0.4296875,-7.5625,61.25,-8.0625,36.671875
906,-0.73779296875,0.148193359375,-0.4296875,-7.5625,61.25,-8.0625,36.671875
908,-0.73583984375,0.149169921875,-0.438720703125,-7.5625,64.875,-6.375,36.671875
910,-0.73583984375,0.149169921875,-0.438720703125,-7.5625,64.875,-6.375,36.671875
913,-0.7119140625,0.137451171875,-0.469482421875,-5.5625,67.75,-3.6875,36.671875
914,-0.7119140625,0.137451171875,-0.469482421875,-5.5625,67.75,-3.6875,36.671875
916,-0.69091796875,0.1328125,-0.50244140625,-0.5625,69.0,0.3125,36.671875
918,-0.69091796875,0.1328125,-0.50244140625,-0.5625,69.0,0.3125,36.671875
920,-0.69091796875,0.1328125,-0.50244140625,-0.5625,69.0,0.3125,36.671875
922,-0.732666015625,0.157958984375,-0.471923828125,-2.375,70.375,1.625,36.671875
924,-0.732666015625,0.157958984375,-0.471923828125,-2.375,70.375,1.625,36.671875
926,-0.743896484375,0.199462890625,-0.47412109375,-7.5,72.875,1.1875,36.671875
928,-0.743896484375,0.199462890625,-0.47412109375,-7.5,72.875,1.1875,36.671875
930,-0.714599609375,0.2138671875,-0.503662109375,-9.375,74.875,1.6875,36.671875
932,-0.714599609375,0.2138671875,-0.503662109375,-9.375,74.875,1.6875,36.671875
933,-0.714599609375,0.2138671875,-0.503662109375,-9.375,74.875,1.6875,36.671875
936,-0.686767578125,0.214599609375,-0.521728515625,-8.9375,75.3125,2.3125,36.671875
938,-0.686767578125,0.214599609375,-0.521728515625,-8.9375,75.3125,2.3125,36.671875
940,-0.673583984375,0.229736328125,-0.53466796875,-8.0625,74.5,2.25,36.671875
942,-0.673583984375,0.229736328125,-0.53466796875,-8.0625,74.5,2.25,36.671875
943,-0.67138671875,0.240478515625,-0.54541015625,-7.25,73.0,1.5625,36.671875
945,-0.67138671875,0.240478515625,-0.54541015625,-7.25,73.0,1.5625,36.671875
947,-0.674560546875,0.234130859375,-0.557861328125,-6.375,70.9375,0.375,36.671875
949,-0.674560546875,0.234130859375,-0.557861328125,-6.375,70.9375,0.375,36.671875
951,-0.674560546875,0.234130859375,-0.557861328125,-6.375,70.9375,0.375,36.671875
953,-0.672607421875,0.22216796875,-0.574951171875,-4.1875,68.9375,-0.6875,36.671875
955,-0.672607421875,0.22216796875,-0.574951171875,-4.1875,68.9375,-0.6875,36.671875
958,-0.671875,0.2158203125,-0.5849609375,-1.375,66.3125,-1.625,36.671875
959,-0.671875,0.2158203125,-0.5849609375,-1.375,66.3125,-1.625,36.671875
961,-0.6728515625,0.209716796875,-0.585693359375,1.0,63.0,-2.6875,36.671875
963,-0.6728515625,0.209716796875,-0.585693359375,1.0,63.0,-2.6875,36.671875
965,-0.68017578125,0.2041015625,-0.582275390625,2.3125,59.5625,-3.5,36.671875
967,-0.68017578125,0.2041015625,-0.582275390625,2.3125,59.5625,-3.5,36.671875
969,-0.68017578125,0.2041015625,-0.582275390625,2.3125,59.5625,-3.5,36.671875
971,-0.693603515625,0.20166015625,-0.575439453125,2.8125,56.4375,-4.125,36.671875
973,-0.693603515625,0.20166015625,-0.575439453125,2.8125,56.4375,-4.125,36.671875
975,-0.707275390625,0.19921875,-0.5703125,2.3125,54.4375,-4.9375,36.69921875
977,-0.707275390625,0.19921875,-0.5703125,2.3125,54.4375,-4.9375,36.69921875
979,-0.7119140625,0.19140625,-0.574951171875,1.5625,52.875,-5.0625,36.69921875
981,-0.7119140625,0.19140625,-0.574951171875,1.5625,52.875,-5.0625,36.69921875
983,-0.7099609375,0.181640625,-0.580322265625,0.9375,51.5,-4.6875,36.69921875
985,-0.7099609375,0.181640625,-0.580322265625,0.9375,51.5,-4.6875,36.69921875
987,-0.7099609375,0.18115234375,-0.581787109375,0.6875,49.625,-4.25,36.69921875
989,-0.701904296875,0.18115234375,-0.581787109375,0.6875,49.625,-4.25,36.69921875
991,-0.701904296875,0.18115234375,-0.581787109375,0.6875,49.625,-4.25,36.69921875
993,-0.6982421875,0.18359375,-0.575927734375,0.625,48.25,-3.25,36.69921875
995,-0.6982421875,0.18359375,-0.575927734375,0.625,48.25,-3.25,36.69921875
997,-0.69580078125,0.186767578125,-0.5732421875,1.375,47.5625,-1.875,36.69921875
999,-0.69580078125,0.186767578125,-0.5732421875,1.375,47.5625,-1.875,36.69921875
1001,-0.693603515625,0.19287109375,-0.562255859375,2.125,47.75,-0.0625,36.69921875
1003,-0.693603515625,0.19287109375,-0.562255859375,2.125,47.75,-0.0625,36.69921875
1005,-0.690673828125,0.205078125,-0.551513671875,3.625,48.5625,1.25,36.69921875
1007,-0.690673828125,0.205078125,-0.551513671875,3.625,48.5625,1.25,36.69921875
1009,-0.690673828125,0.205078125,-0.551513671875,3.625,48.5625,1.875,36.69921875
1011,-0.686279296875,0.2236328125,-0.539794921875,5.875,50.3125,1.875,36.69921875
1013,-0.686279296875,0.2236328125,-0.539794921875,5.875,50.3125,1.875,36.69921875
1015,-0.680908203125,0.244140625,-0.531494140625,8.0625,52.1875,2.125,36.69921875
1017,-0.680908203125,0.244140625,-0.531494140625,8.0625,52.1875,2.125,36.69921875
1019,-0.67333984375,0.2646484375,-0.52685546875,10.3125,54.5,1.625,36.69921875
1021,-0.67333984375,0.2646484375,-0.52685546875,10.3125,54.5,1.625,36.69921875
1022,-0.66943359375,0.281494140625,-0.51220703125,11.0625,57.625,0.5,36.69921875
1024,-0.66943359375,0.281494140625,-0.51220703125,11.0625,57.625,0.5,36.69921875
1027,-0.66943359375,0.281494140625,-0.51220703125,10.625,60.8125,-1.5,36.69921875
1029,-0.669677734375,0.295166015625,-0.51220703125,10.625,60.8125,-1.5,36.69921875
1031,-0.669677734375,0.295166015625,-0.51220703125,10.625,60.8125,-1.5,36.69921875
1033,-0.66650390625,0.30517578125,-0.529296875,10.5,63.75,-3.875,36.69921875
1034,-0.66650390625,0.30517578125,-0.529296875,10.5,63.75,-3.875,36.69921875
1036,-0.65869140625,0.30322265625,-0.55419921875,10.5,66.3125,-6.4375,36.69921875
1038,-0.65869140625,0.30322265625,-0.55419921875,10.5,66.3125,-6.4375,36.69921875
1040,-0.650634765625,0.2919921875,-0.582763671875,11.25,68.4375,-8.8125,36.69921875
1042,-0.650634765625,0.2919921875,-0.582763671875,11.25,68.4375,-8.8125,36.69921875
1044,-0.650634765625,0.2919921875,-0.582763671875,11.25,68.4375,-8.8125,36.69921875
1046,-0.650390625,0.28173828125,-0.60498046875,11.625,69.3125,-11.0625,36.69921875
1049,-0.650390625,0.28173828125,-0.60498046875,11.625,69.3125,-11.0625,36.69921875
1051,-0.649658203125,0.264404296875,-0.625244140625,11.1875,69.1875,-13.0625,36.69921875
1052,-0.649658203125,0.264404296875,-0.625244140625,11.1875,69.1875,-13.0625,36.69921875
1054,-0.64697265625,0.248291015625,-0.641845703125,9.3125,67.6875,-14.875,36.69921875
1056,-0.64697265625,0.248291015625,-0.641845703125,9.3125,67.6875,-14.875,36.69921875
1058,-0.643798828125,0.2353515625,-0.652587890625,7.0625,65.625,-16.375,36.69921875
1060,-0.643798828125,0.2353515625,-0.652587890625,7.0625,65.625,-16.375,36.69921875
1063,-0.646484375,0.228759765625,-0.6552734375,5.25,63.1875,-17.6875,36.69921875
1065,-0.646484375,0.228759765625,-0.6552734375,5.25,63.1875,-17.6875,36.69921875
1067,-0.646484375,0.228759765625,-0.6552734375,4.3125,60.4375,-18.75,36.69921875
1069,-0.643798828125,0.2119140625,-0.650634765625,4.3125,60.4375,-18.75,36.69921875
1071,-0.643798828125,0.2119140625,-0.650634765625,4.3125,60.4375,-18.75,36.69921875
1073,-0.64306640625,0.205078125,-0.649169921875,4.0,57.3125,-19.5,36.69921875
1075,-0.64306640625,0.205078125,-0.649169921875,4.0,57.3125,-19.5,36.69921875
1077,-0.647705078125,0.206787109375,-0.64892578125,4.0,54.0,-19.5625,36.69921875
1079,-0.647705078125,0.206787109375,-0.64892578125,4.0,54.0,-19.5625,36.69921875
1081,-0.640869140625,0.2021484375,-0.65185546875,5.0625,51.125,-19.4375,36.69921875
1083,-0.640869140625,0.2021484375,-0.65185546875,5.0625,51.125,-19.4375,36.69921875
1085,-0.635986328125,0.192626953125,-0.6533203125,7.0625,48.5,-19.0625,36.69921875
1086,-0.635986328125,0.192626953125,-0.6533203125,7.0625,48.5,-19.0625,36.69921875
1088,-0.635986328125,0.192626953125,-0.6533203125,7.0625,48.5,-19.0625,36.69921875
1090,-0.637451171875,0.18603515625,-0.646240234375,10.25,45.875,-18.0,36.69921875
1093,-0.637451171875,0.18603515625,-0.646240234375,10.25,45.875,-18.0,36.69921875
1095,-0.643310546875,0.187744140625,-0.636962890625,13.875,44.1875,-16.5625,36.69921875
1097,-0.643310546875,0.187744140625,-0.636962890625,13.875,44.1875,-16.5625,36.69921875
1099,-0.64697265625,0.191650390625,-0.626708984375,17.375,43.5625,-15.25,36.69921875
1100,-0.64697265625,0.191650390625,-0.626708984375,17.375,43.5625,-15.25,36.69921875
1102,-0.65185546875,0.193603515625,-0.618896484375,19.875,43.9375,-14.6875,36.69921875
1104,-0.65185546875,0.193603515625,-0.618896484375,19.875,43.9375,-14.6875,36.69921875
1107,-0.655029296875,0.194580078125,-0.6181640625,21.5,44.9375,-14.5,36.69921875
1109,-0.655029296875,0.194580078125,-0.6181640625,21.5,44.9375,-14.5,36.69921875
1111,-0.655029296875,0.194580078125,-0.6181640625,21.5,44.9375,-14.5,36.69921875
1113,-0.652099609375,0.191650390625,-0.620361328125,22.6875,45.625,-14.5625,36.69921875
1115,-0.652099609375,0.191650390625,-0.620361328125,22.6875,45.625,-14.5625,36.69921875
1117,-0.64404296875,0.188720703125,-0.623291015625,22.9375,46.5625,-14.75,36.69921875
1119,-0.64404296875,0.188720703125,-0.623291015625,22.9375,46.5625,-14.75,36.69921875
1121,-0.633544921875,0.186279296875,-0.628173828125,22.5625,47.5,-14.8125,36.69921875
1123,-0.633544921875,0.186279296875,-0.628173828125,22.5625,47.5,-14.8125,36.69921875
1125,-0.624267578125,0.181640625,-0.63623046875,22.1875,48.375,-15.1875,36.69921875
1127,-0.624267578125,0.181640625,-0.63623046875,22.1875,48.375,-15.1875,36.69921875
1129,-0.616455078125,0.172607421875,-0.642333984375,21.875,49.5,-14.875,36.69921875
1131,-0.616455078125,0.172607421875,-0.642333984375,21.875,49.5,-14.875,36.69921875
1133,-0.60791015625,0.162353515625,-0.650634765625,22.5625,51.3125,-14.375,36.69921875
1135,-0.60791015625,0.162353515625,-0.650634765625,22.5625,51.3125,-14.375,36.69921875
1138,-0.59765625,0.15576171875,-0.6533203125,23.5,53.0625,-13.6875,36.69921875
1140,-0.59765625,0.15576171875,-0.6533203125,23.5,53.0625,-13.6875,36.69921875
1141,-0.59765625,0.15576171875,-0.6533203125,23.5,53.0625,-13.6875,36.69921875
1143,-0.5859375,0.154052734375,-0.649658203125,23.4375,54.1875,-13.125,36.69921875
1145,-0.5859375,0.154052734375,-0.649658203125,23.4375,54.1875,-13.125,36.69921875
1147,-0.574462890625,0.151611328125,-0.653076171875,22.25,55.4375,-12.8125,36.69921875
1149,-0.574462890625,0.151611328125,-0.653076171875,22.25,55.4375,-12.8125,36.69921875
1151,-0.5673828125,0.145263671875,-0.663330078125,20.75,56.75,-12.5625,36.69921875
1153,-0.5673828125,0.145263671875,-0.663330078125,20.75,56.75,-12.5625,36.69921875
1155,-0.5673828125,0.145263671875,-0.663330078125,20.75,56.75,-12.125,36.69921875
1157,-0.562744140625,0.139892578125,-0.67041015625,19.25,57.5,-12.125,36.69921875
1160,-0.562744140625,0.139892578125,-0.67041015625,19.25,57.5,-12.125,36.69921875
1161,-0.5595703125,0.139404296875,-0.677490234375,17.8125,58.125,-11.5625,36.69921875
1163,-0.5595703125,0.139404296875,-0.677490234375,17.8125,58.125,-11.5625,36.69921875
1165,-0.554931640625,0.138671875,-0.686767578125,17.0,58.0625,-11.3125,36.69921875
1167,-0.554931640625,0.138671875,-0.686767578125,17.0,58.0625,-11.3125,36.69921875
1169,-0.544677734375,0.13916015625,-0.697265625,16.3125,57.625,-11.8125,36.69921875
1171,-0.544677734375,0.13916015625,-0.697265625,16.3125,57.625,-11.8125,36.69921875
1173,-0.535888671875,0.136962890625,-0.70361328125,15.375,56.375,-12.4375,36.69921875
1175,-0.535888671875,0.136962890625,-0.70361328125,15.375,56.375,-12.4375,36.69921875
1177,-0.535888671875,0.136962890625,-0.70361328125,15.375,56.375,-12.4375,36.69921875
1179,-0.536865234375,0.131103515625,-0.708740234375,14.4375,54.8125,-13.0625,36.69921875
1181,-0.536865234375,0.131103515625,-0.708740234375,14.4375,54.8125,-13.0625,36.69921875
1183,-0.53369140625,0.12158203125,-0.71240234375,13.5625,52.8125,-13.9375,36.69921875
1185,-0.53369140625,0.12158203125,-0.71240234375,13.5625,52.8125,-13.9375,36.69921875
1187,-0.53271484375,0.114990234375,-0.715087890625,12.375,50.5625,-14.625,36.69921875
1189,-0.53271484375,0.114990234375,-0.715087890625,12.375,50.5625,-14.625,36.69921875
1191,-0.532958984375,0.111083984375,-0.71533203125,11.3125,48.1875,-15.0,36.69921875
1193,-0.532958984375,0.111083984375,-0.71533203125,11.3125,48.1875,-15.0,36.69921875
1195,-0.532958984375,0.111083984375,-0.71533203125,11.3125,32.1875,-15.0,36.69921875
1197,-0.533203125,0.109130859375,-0.7109375,9.9375,46.25,-15.0,36.69921875
1199,-0.533203125,0.109130859375,-0.7109375,9.9375,46.25,-15.0,36.69921875
1201,-0.532958984375,0.106201171875,-0.707763671875,8.75,44.875,-14.625,36.69921875
1203,-0.532958984375,0.106201171875,-0.707763671875,8.75,44.875,-14.625,36.69921875
1205,-0.53271484375,0.102783203125,-0.69921875,8.25,43.75,-14.0,36.69921875
1207,-0.53271484375,0.102783203125,-0.69921875,8.25,43.75,-14.0,36.69921875
1209,-0.533203125,0.10205078125,-0.6904296875,7.875,43.1875,-13.375,36.69921875
1211,-0.533203125,0.10205078125,-0.6904296875,7.875,43.1875,-13.375,36.69921875
1213,-0.533203125,0.10205078125,-0.689697265625,7.625,43.375,-12.875,36.69921875
1215,-0.532958984375,0.09912109375,-0.689697265625,7.625,43.375,-12.875,36.69921875
1217,-0.532958984375,0.09912109375,-0.689697265625,7.625,43.375,-12.875,36.69921875
1219,-0.532958984375,0.096435546875,-0.690673828125,7.6875,44.25,-12.3125,36.69921875
1221,-0.532958984375,0.096435546875,-0.690673828125,7.6875,44.25,-12.3125,36.69921875
1223,-0.532958984375,0.0966796875,-0.695556640625,8.125,45.5625,-11.625,36.69921875
1225,-0.532958984375,0.0966796875,-0.695556640625,8.125,45.5625,-11.625,36.69921875
1227,-0.532958984375,0.098876953125,-0.700927734375,8.875,46.75,-11.0,36.69921875
1229,-0.532958984375,0.098876953125,-0.700927734375,8.875,46.75,-11.0,36.69921875
1231,-0.532958984375,0.0986328125,-0.708984375,9.4375,48.0,-10.875,36.69921875
1233,-0.532958984375,0.0986328125,-0.708984375,9.4375,48.0,-10.875,36.69921875
1235,-0.532958984375,0.0986328125,-0.708984375,9.4375,48.0,-10.875,36.69921875
1237,-0.531982421875,0.09423828125,-0.720947265625,9.5,49.125,-11.0,36.69921875
1238,-0.531982421875,0.09423828125,-0.720947265625,9.5,49.125,-11.0,36.69921875
1240,-0.525146484375,0.088134765625,-0.7412109375,9.1875,50.125,-11.4375,36.69921875
1242,-0.525146484375,0.088134765625,-0.7412109375,9.1875,50.125,-11.4375,36.69921875
1244,-0.51171875,0.0810546875,-0.758056640625,9.375,51.0625,-11.9375,36.69921875
1247,-0.51171875,0.0810546875,-0.758056640625,9.375,51.0625,-11.9375,36.69921875
1249,-0.50439453125,0.078857421875,-0.7744140625,9.6875,51.625,-11.9375,36.69921875
1251,-0.50439453125,0.078857421875,-0.7744140625,9.6875,51.625,-11.9375,36.69921875
1253,-0.50439453125,0.078857421875,-0.7744140625,9.6875,51.625,-11.9375,36.69921875
1254,-0.50537109375,0.083984375,-0.791015625,10.5,52.0,-11.6875,36.69921875
1256,-0.50537109375,0.083984375,-0.791015625,10.5,52.0,-11.6875,36.69921875
1259,-0.512451171875,0.09619140625,-0.80322265625,10.9375,52.4375,-11.3125,36.66796875
1261,-0.512451171875,0.09619140625,-0.80322265625,10.9375,52.4375,-11.3125,36.66796875
1263,-0.522216796875,0.102783203125,-0.806884765625,10.8125,53.1875,-11.0,36.66796875
1265,-0.522216796875,0.102783203125,-0.806884765625,10.8125,53.1875,-11.0,36.66796875
1267,-0.521728515625,0.100830078125,-0.819580078125,10.125,54.25,-10.25,36.66796875
1269,-0.521728515625,0.100830078125,-0.819580078125,10.125,54.25,-10.25,36.66796875
1271,-0.513916015625,0.09716796875,-0.83642578125,9.1875,55.25,-9.3125,36.66796875
1273,-0.513916015625,0.09716796875,-0.83642578125,9.1875,55.25,-9.3125,36.66796875
1275,-0.513916015625,0.09716796875,-0.83642578125,9.1875,55.25,-9.3125,36.66796875
1277,-0.50341796875,0.098876953125,-0.848876953125,8.0,55.75,-8.5625,36.66796875
1279,-0.50341796875,0.098876953125,-0.848876953125,8.0,55.75,-8.5625,36.66796875
1280,-0.501708984375,0.10791015625,-0.859375,6.5625,55.875,-8.3125,36.66796875
1282,-0.501708984375,0.10791015625,-0.859375,6.5625,55.875,-8.3125,36.66796875
1284,-0.5087890625,0.119873046875,-0.873779296875,5.4375,55.875,-8.125,36.66796875
1286,-0.5087890625,0.119873046875,-0.873779296875,5.4375,55.875,-8.125,36.66796875
1288,-0.5087890625,0.12451171875,-0.88720703125,4.8125,55.9375,-8.125,36.66796875
1291,-0.51513671875,0.12451171875,-0.88720703125,4.8125,55.9375,-8.125,36.66796875
1293,-0.51513671875,0.12353515625,-0.897705078125,4.0,55.75,-8.125,36.66796875
1295,-0.52001953125,0.12353515625,-0.897705078125,4.0,55.75,-8.125,36.66796875
1297,-0.52001953125,0.12353515625,-0.897705078125,4.0,55.75,-8.125,36.66796875
1298,-0.526123046875,0.123291015625,-0.9033203125,2.5625,55.375,-8.5,36.66796875
1300,-0.526123046875,0.123291015625,-0.9033203125,2.5625,55.375,-8.5,36.66796875
1302,-0.538330078125,0.12353515625,-0.91015625,0.625,55.1875,-9.3125,36.66796875
1304,-0.538330078125,0.12353515625,-0.91015625,0.625,55.1875,-9.3125,36.66796875
1306,-0.55908203125,0.122314453125,-0.918212890625,-1.75,55.5,-10.5625,36.66796875
1308,-0.55908203125,0.122314453125,-0.918212890625,-1.75,55.5,-10.5625,36.66796875
1310,-0.55908203125,0.122314453125,-0.918212890625,-1.75,55.5,-10.5625,36.66796875
1312,-0.578125,0.122802734375,-0.931884765625,-4.1875,56.0625,-12.375,36.66796875
1314,-0.578125,0.122802734375,-0.931884765625,-4.1875,56.0625,-12.375,36.66796875
1316,-0.591796875,0.118408203125,-0.9443359375,-6.625,56.625,-14.5,36.66796875
1318,-0.591796875,0.118408203125,-0.9443359375,-6.625,56.625,-14.5,36.66796875
1320,-0.60498046875,0.11328125,-0.96044921875,-9.6875,57.3125,-16.6875,36.66796875
1322,-0.60498046875,0.11328125,-0.96044921875,-9.6875,57.3125,-16.6875,36.66796875
1324,-0.619384765625,0.107421875,-0.981201171875,-12.3125,58.25,-18.125,36.66796875
1326,-0.619384765625,0.107421875,-0.981201171875,-12.3125,58.25,-18.125,36.66796875
1328,-0.619384765625,0.107421875,-0.981201171875,-12.3125,58.25,-18.125,36.66796875
1330,-0.629150390625,0.10009765625,-1.004150390625,-14.0625,59.6875,-18.8125,36.66796875
1331,-0.629150390625,0.10009765625,-1.004150390625,-14.0625,59.6875,-18.8125,36.66796875
1334,-0.635009765625,0.090576171875,-1.032958984375,-14.4375,61.0,-19.125,36.66796875
1336,-0.635009765625,0.090576171875,-1.032958984375,-14.4375,61.0,-19.125,36.66796875
1338,-0.638427734375,0.08251953125,-1.060546875,-13.8125,62.4375,-19.1875,36.66796875
1340,-0.638427734375,0.08251953125,-1.060546875,-13.8125,62.4375,-19.1875,36.66796875
1341,-0.6357421875,0.072265625,-1.08837890625,-12.375,63.625,-18.625,36.66796875
1343,-0.6357421875,0.072265625,-1.08837890625,-12.375,63.625,-18.625,36.66796875
1345,-0.6357421875,0.072265625,-1.08837890625,-12.375,63.625,-18.625,36.66796875
1347,-0.630615234375,0.06103515625,-1.114990234375,-10.8125,64.9375,-17.5,36.66796875
1349,-0.630615234375,0.06103515625,-1.114990234375,-10.8125,64.9375,-17.5,36.66796875
1351,-0.6279296875,0.052734375,-1.14111328125,-9.0625,66.25,-15.625,36.66796875
1353,-0.6279296875,0.052734375,-1.14111328125,-9.0625,66.25,-15.625,36.66796875
1355,-0.62353515625,0.049072265625,-1.172119140625,-6.875,67.625,-13.25,36.66796875
1357,-0.62353515625,0.049072265625,-1.172119140625,-6.875,67.625,-13.25,36.66796875
1359,-0.616455078125,0.050537109375,-1.20654296875,-4.25,68.6875,-10.9375,36.66796875
1361,-0.616455078125,0.050537109375,-1.20654296875,-4.25,68.6875,-10.9375,36.66796875
1363,-0.616455078125,0.050537109375,-1.20654296875,-4.25,68.6875,-10.9375,36.66796875
1365,-0.606689453125,0.056396484375,-1.240966796875,-1.0,69.5,-9.125,36.66796875
1367,-0.606689453125,0.056396484375,-1.240966796875,-1.0,69.5,-9.125,36.66796875
1369,-0.59765625,0.062255859375,-1.271484375,2.75,70.0625,-7.8125,36.66796875
1371,-0.59765625,0.062255859375,-1.271484375,2.75,70.0625,-7.8125,36.66796875
1373,-0.58935546875,0.06591796875,-1.302490234375,5.875,70.625,-6.25,36.66796875
1375,-0.58935546875,0.06591796875,-1.302490234375,5.875,70.625,-6.25,36.66796875
1377,-0.58447265625,0.06689453125,-1.3388671875,8.1875,70.75,-5.125,36.66796875
1379,-0.58447265625,0.06689453125,-1.3388671875,8.1875,70.75,-5.125,36.66796875
1381,-0.58447265625,0.06689453125,-1.3388671875,8.1875,70.75,-3.625,36.66796875
1383,-0.57763671875,0.0673828125,-1.38232421875,9.6875,70.375,-3.625,36.66796875
1385,-0.57763671875,0.0673828125,-1.38232421875,9.6875,70.375,-3.625,36.66796875
1387,-0.568603515625,0.068603515625,-1.426025390625,10.9375,69.5,-2.3125,36.66796875
1389,-0.568603515625,0.068603515625,-1.426025390625,10.9375,69.5,-2.3125,36.66796875
1391,-0.5556640625,0.073486328125,-1.46337890625,12.25,68.1875,-1.0,36.66796875
1393,-0.5556640625,0.073486328125,-1.46337890625,12.25,68.1875,-1.0,36.66796875
1395,-0.536865234375,0.081787109375,-1.49609375,13.0625,66.3125,-0.0625,36.66796875
1397,-0.536865234375,0.081787109375,-1.49609375,13.0625,66.3125,-0.0625,36.66796875
1399,-0.521484375,0.0888671875,-1.527587890625,13.25,63.75,0.6875,36.703125
1401,-0.521484375,0.0888671875,-1.527587890625,13.25,63.75,0.6875,36.703125
1403,-0.521484375,0.0888671875,-1.555908203125,12.875,61.0625,1.4375,36.703125
1405,-0.497802734375,0.0966796875,-1.555908203125,12.875,61.0625,1.4375,36.703125
1407,-0.497802734375,0.0966796875,-1.555908203125,12.875,61.0625,1.4375,36.703125
1409,-0.47607421875,0.108154296875,-1.581787109375,12.375,57.9375,1.75,36.703125
1411,-0.47607421875,0.108154296875,-1.581787109375,12.375,57.9375,1.75,36.703125
1413,-0.456787109375,0.12158203125,-1.608154296875,11.9375,54.4375,1.875,36.703125
1415,-0.456787109375,0.12158203125,-1.608154296875,11.9375,54.4375,1.875,36.703125
1417,-0.435302734375,0.13330078125,-1.62939453125,11.3125,50.3125,1.5625,36.703125
1419,-0.435302734375,0.13330078125,-1.62939453125,11.3125,50.3125,1.5625,36.703125
1421,-0.40966796875,0.14306640625,-1.647705078125,10.25,46.1875,1.0625,36.703125
1423,-0.40966796875,0.14306640625,-1.647705078125,10.25,46.1875,1.0625,36.703125
1425,-0.40966796875,0.14306640625,-1.647705078125,10.25,46.1875,1.0625,36.703125
1427,-0.38671875,0.151123046875,-1.666748046875,9.25,41.9375,0.4375,36.703125
1429,-0.38671875,0.151123046875,-1.666748046875,9.25,41.9375,0.4375,36.703125
1431,-0.36865234375,0.15673828125,-1.6923828125,8.125,37.4375,-0.25,36.703125
1433,-0.36865234375,0.15673828125,-1.6923828125,8.125,37.4375,-0.25,36.703125
1435,-0.349853515625,0.16259765625,-1.714111328125,7.0,32.8125,-1.4375,36.703125
1437,-0.349853515625,0.16259765625,-1.714111328125,7.0,32.8125,-1.4375,36.703125
1439,-0.349853515625,0.16259765625,-1.714111328125,7.0,32.8125,-1.4375,36.703125
1441,-0.334228515625,0.175048828125,-1.73291015625,5.8125,27.8125,-3.375,36.703125
1443,-0.334228515625,0.175048828125,-1.73291015625,5.8125,27.8125,-3.375,36.703125
1445,-0.321044921875,0.19140625,-1.74560546875,4.1875,21.8125,-5.5,36.703125
1447,-0.321044921875,0.19140625,-1.74560546875,4.1875,21.8125,-5.5,36.703125
1449,-0.3076171875,0.20458984375,-1.754150390625,1.875,14.9375,-7.875,36.703125
1451,-0.3076171875,0.20458984375,-1.754150390625,1.875,14.9375,-7.875,36.703125
1453,-0.2958984375,0.216064453125,-1.763427734375,-0.6875,7.8125,-10.1875,36.703125
1455,-0.2958984375,0.216064453125,-1.763427734375,-0.6875,7.8125,-10.1875,36.703125
1457,-0.286376953125,0.225341796875,-1.77392578125,-3.0625,1.0,-12.125,36.703125
1459,-0.286376953125,0.225341796875,-1.77392578125,-3.0625,1.0,-12.125,36.703125
1461,-0.281005859375,0.229248046875,-1.7861328125,-5.1875,-5.875,-13.3125,36.703125
1463,-0.281005859375,0.229248046875,-1.7861328125,-5.1875,-5.875,-13.3125,36.703125
1465,-0.281005859375,0.229248046875,-1.7861328125,-6.9375,-13.125,-14.125,36.703125
1467,-0.2744140625,0.2294921875,-1.79638671875,-6.9375,-13.125,-14.125,36.703125
1469,-0.2744140625,0.2294921875,-1.79638671875,-6.9375,-13.125,-14.125,36.703125
1471,-0.26611328125,0.22607421875,-1.79931640625,-7.0,-20.5,-14.3125,36.703125
1473,-0.26611328125,0.22607421875,-1.79931640625,-7.0,-20.5,-14.3125,36.703125
1475,-0.259033203125,0.22509765625,-1.796142578125,-5.625,-28.3125,-14.0,36.703125
1477,-0.259033203125,0.22509765625,-1.796142578125,-5.625,-28.3125,-14.0,36.703125
1479,-0.259033203125,0.22509765625,-1.78857421875,-3.25,-36.3125,-13.125,36.703125
1481,-0.255615234375,0.225830078125,-1.78857421875,-3.25,-36.3125,-13.125,36.703125
1483,-0.255615234375,0.225830078125,-1.78857421875,-3.25,-36.3125,-13.125,36.703125
1484,-0.255859375,0.228515625,-1.77001953125,0.0625,-44.4375,-12.0625,36.703125
1487,-0.255859375,0.228515625,-1.77001953125,0.0625,-44.4375,-12.0625,36.703125
1489,-0.26171875,0.235595703125,-1.743896484375,3.5,-52.6875,-10.75,36.703125
1491,-0.26171875,0.235595703125,-1.743896484375,3.5,-52.6875,-10.75,36.703125
1493,-0.26318359375,0.234375,-1.723388671875,6.6875,-59.875,-9.6875,36.703125
1495,-0.26318359375,0.234375,-1.723388671875,6.6875,-59.875,-9.6875,36.703125
1497,-0.2626953125,0.230712890625,-1.698974609375,9.0625,-66.625,-8.8125,36.703125
1499,-0.2626953125,0.230712890625,-1.698974609375,9.0625,-66.625,-8.8125,36.703125
1501,-0.2626953125,0.230712890625,-1.698974609375,9.0625,-66.625,-8.8125,36.703125
1502,-0.263916015625,0.226806640625,-1.669189453125,10.875,-73.75,-8.1875,36.703125
1504,-0.263916015625,0.226806640625,-1.669189453125,10.875,-73.75,-8.1875,36.703125
1506,-0.26220703125,0.220703125,-1.635986328125,11.875,-80.5625,-7.5625,36.703125
1509,-0.26220703125,0.220703125,-1.635986328125,11.875,-80.5625,-7.5625,36.703125
1511,-0.26171875,0.217529296875,-1.60205078125,12.0625,-87.0625,-7.3125,36.703125
1512,-0.26171875,0.217529296875,-1.60205078125,12.0625,-87.0625,-7.3125,36.703125
1514,-0.26416015625,0.216796875,-1.564697265625,11.625,-93.375,-7.5,36.703125
1516,-0.26416015625,0.216796875,-1.564697265625,11.625,-93.375,-7.5,36.703125
1518,-0.26416015625,0.216796875,-1.564697265625,11.625,-93.375,-7.5,36.703125
1520,-0.269775390625,0.21142578125,-1.524658203125,10.6875,-99.3125,-8.0,36.703125
1522,-0.269775390625,0.21142578125,-1.524658203125,10.6875,-99.3125,-8.0,36.703125
1524,-0.27392578125,0.199951171875,-1.48583984375,9.875,-104.875,-8.5,36.703125
1526,-0.27392578125,0.199951171875,-1.48583984375,9.875,-104.875,-8.5,36.703125
1528,-0.271240234375,0.18310546875,-1.445556640625,9.0,-110.0,-8.9375,36.703125
1530,-0.271240234375,0.18310546875,-1.445556640625,9.0,-110.0,-8.9375,36.703125
1532,-0.26416015625,0.164306640625,-1.40380859375,8.5625,-114.5625,-9.5,36.703125
1534,-0.26416015625,0.164306640625,-1.40380859375,8.5625,-114.5625,-9.5,36.703125
1536,-0.26416015625,0.164306640625,-1.40380859375,8.5625,-114.5625,-9.5,36.703125
1538,-0.256591796875,0.1484375,-1.3642578125,8.0625,-119.0625,-9.875,36.703125
1540,-0.256591796875,0.1484375,-1.3642578125,8.0625,-119.0625,-9.875,36.703125
1541,-0.252685546875,0.130615234375,-1.330078125,8.375,-122.9375,-9.875,36.6875
1543,-0.252685546875,0.130615234375,-1.330078125,8.375,-122.9375,-9.875,36.6875
1545,-0.250244140625,0.112060546875,-1.3056640625,9.1875,-126.125,-9.6875,36.6875
1547,-0.250244140625,0.112060546875,-1.3056640625,9.1875,-126.125,-9.6875,36.6875
1549,-0.250244140625,0.112060546875,-1.3056640625,9.1875,-126.125,-9.6875,36.6875
1551,-0.246337890625,0.098876953125,-1.2841796875,10.3125,-128.9375,-9.625,36.6875
1554,-0.246337890625,0.098876953125,-1.2841796875,10.3125,-128.9375,-9.625,36.6875
1556,-0.239013671875,0.09375,-1.267578125,11.8125,-131.75,-9.375,36.6875
1558,-0.239013671875,0.09375,-1.267578125,11.8125,-131.75,-9.375,36.6875
1559,-0.235107421875,0.09619140625,-1.250732421875,13.0625,-134.8125,-8.8125,36.6875
1561,-0.235107421875,0.09619140625,-1.250732421875,13.0625,-134.8125,-8.8125,36.6875
1563,-0.235107421875,0.09765625,-1.23583984375,14.9375,-138.125,-8.3125,36.6875
1565,-0.235107421875,0.09765625,-1.23583984375,14.9375,-138.125,-8.3125,36.6875
1567,-0.235107421875,0.09765625,-1.23583984375,14.9375,-138.125,-7.5,36.6875
1569,-0.2373046875,0.096923828125,-1.224853515625,16.8125,-141.8125,-7.5,36.6875
1571,-0.2373046875,0.096923828125,-1.224853515625,16.8125,-141.8125,-7.5,36.6875
1573,-0.23876953125,0.096435546875,-1.218994140625,18.5625,-145.8125,-6.0,36.6875
1576,-0.23876953125,0.096435546875,-1.218994140625,18.5625,-145.8125,-6.0,36.6875
1577,-0.235595703125,0.099853515625,-1.2109375,20.125,-150.75,-4.375,36.6875
1579,-0.235595703125,0.099853515625,-1.2109375,20.125,-150.75,-4.375,36.6875
1581,-0.2333984375,0.110595703125,-1.197509765625,21.5625,-156.25,-3.0,36.6875
1583,-0.2333984375,0.110595703125,-1.197509765625,21.5625,-156.25,-3.0,36.6875
1585,-0.23974609375,0.120849609375,-1.177978515625,22.0625,-162.125,-1.3125,36.6875
1587,-0.23974609375,0.120849609375,-1.177978515625,22.0625,-162.125,-1.3125,36.6875
1589,-0.23974609375,0.120849609375,-1.177978515625,22.0625,-162.125,-1.3125,36.6875
1591,-0.246826171875,0.12158203125,-1.1591796875,21.5,-168.1875,0.3125,36.6875
1593,-0.246826171875,0.12158203125,-1.1591796875,21.5,-168.1875,0.3125,36.6875
1595,-0.238525390625,0.120849609375,-1.13720703125,20.0625,-174.75,2.0,36.6875
1597,-0.238525390625,0.120849609375,-1.13720703125,20.0625,-174.75,2.0,36.6875
1599,-0.2294921875,0.118896484375,-1.1064453125,17.8125,-181.9375,3.0625,36.6875
1601,-0.2294921875,0.118896484375,-1.1064453125,17.8125,-181.9375,3.0625,36.6875
1603,-0.225830078125,0.123291015625,-1.06982421875,15.75,-189.5625,3.9375,36.6875
1605,-0.225830078125,0.123291015625,-1.06982421875,15.75,-189.5625,3.9375,36.6875
1607,-0.225830078125,0.123291015625,-1.06982421875,15.75,-189.5625,3.9375,36.6875
1609,-0.229248046875,0.126953125,-1.03173828125,14.0,-196.9375,4.4375,36.6875
1611,-0.229248046875,0.126953125,-1.03173828125,14.0,-196.9375,4.4375,36.6875
1613,-0.226318359375,0.124755859375,-0.994140625,11.875,-204.125,5.1875,36.6875
1614,-0.226318359375,0.124755859375,-0.994140625,11.875,-204.125,5.1875,36.6875
1616,-0.216796875,0.11962890625,-0.95458984375,9.1875,-210.75,5.75,36.6875
1618,-0.216796875,0.11962890625,-0.95458984375,9.1875,-210.75,5.75,36.6875
1621,-0.212158203125,0.110595703125,-0.90234375,6.5,-217.125,6.0,36.6875
1623,-0.212158203125,0.110595703125,-0.90234375,6.5,-217.125,6.0,36.6875
1625,-0.212158203125,0.110595703125,-0.90234375,4.5,-223.75,6.125,36.6875
1627,-0.210205078125,0.1044921875,-0.843994140625,4.5,-223.75,6.125,36.6875
1629,-0.210205078125,0.1044921875,-0.843994140625,4.5,-223.75,6.125,36.6875
1631,-0.21240234375,0.09912109375,-0.798828125,2.375,-229.9375,6.375,36.6875
1632,-0.21240234375,0.09912109375,-0.798828125,2.375,-229.9375,6.375,36.6875
1634,-0.212158203125,0.093994140625,-0.756591796875,0.375,-235.375,6.9375,36.6875
1636,-0.212158203125,0.093994140625,-0.756591796875,0.375,-235.375,6.9375,36.6875
1638,-0.209228515625,0.091796875,-0.7080078125,-1.125,-240.0625,7.3125,36.6875
1640,-0.209228515625,0.091796875,-0.7080078125,-1.125,-240.0625,7.3125,36.6875
1642,-0.209228515625,0.091796875,-0.7080078125,-1.125,-240.0625,7.3125,36.6875
1644,-0.20703125,0.09423828125,-0.652587890625,-2.125,-244.3125,7.3125,36.6875
1646,-0.20703125,0.09423828125,-0.652587890625,-2.125,-244.3125,7.3125,36.6875
1648,-0.2060546875,0.091552734375,-0.592529296875,-2.125,-247.625,6.8125,36.6875
1650,-0.2060546875,0.091552734375,-0.592529296875,-2.125,-247.625,6.8125,36.6875
1652,-0.21240234375,0.083251953125,-0.528564453125,-0.9375,-249.75,6.125,36.6875
1655,-0.21240234375,0.083251953125,-0.528564453125,-0.9375,-249.75,6.125,36.6875
1656,-0.223388671875,0.0859375,-0.469970703125,0.6875,-250.875,5.6875,36.6875
1658,-0.223388671875,0.0859375,-0.469970703125,0.6875,-250.875,5.6875,36.6875
1660,-0.223388671875,0.08984375,-0.424072265625,2.0,-251.0625,5.25,36.6875
1662,-0.2314453125,0.08984375,-0.424072265625,2.0,-251.0625,5.25,36.6875
1664,-0.2314453125,0.08984375,-0.424072265625,2.0,-251.0625,5.25,36.6875
1666,-0.240234375,0.094482421875,-0.38232421875,3.1875,-250.25,4.5625,36.6875
1668,-0.240234375,0.094482421875,-0.38232421875,3.1875,-250.25,4.5625,36.6875
1671,-0.253662109375,0.108154296875,-0.349609375,3.8125,-248.8125,4.0,36.6875
1672,-0.253662109375,0.108154296875,-0.349609375,3.8125,-248.8125,4.0,36.6875
1674,-0.26416015625,0.12255859375,-0.3173828125,4.375,-246.875,3.1875,36.6875
1676,-0.26416015625,0.12255859375,-0.3173828125,4.375,-246.875,3.1875,36.6875
1678,-0.265625,0.1435546875,-0.286376953125,5.0625,-244.875,2.125,36.6875
1680,-0.265625,0.1435546875,-0.286376953125,5.0625,-244.875,2.125,36.6875
1682,-0.265625,0.1435546875,-0.286376953125,5.0625,-244.875,2.125,36.6875
1684,-0.263916015625,0.16357421875,-0.26318359375,5.875,-242.5625,0.875,36.703125
1686,-0.263916015625,0.16357421875,-0.26318359375,5.875,-242.5625,0.875,36.703125
1688,-0.21142578125,0.20654296875,-0.2578125,7.1875,-239.375,2.9375,36.703125
1690,-0.21142578125,0.20654296875,-0.2578125,7.1875,-239.375,2.9375,36.703125
1691,-0.206298828125,0.26171875,-0.33251953125,15.75,-228.1875,20.875,36.703125
1694,-0.206298828125,0.26171875,-0.33251953125,15.75,-228.1875,20.875,36.703125
1696,-0.32080078125,0.19384765625,-0.28662109375,34.4375,-221.625,24.0625,36.703125
1698,-0.32080078125,0.19384765625,-0.28662109375,34.4375,-221.625,24.0625,36.703125
1700,-0.32080078125,0.19384765625,-0.28662109375,34.4375,-221.625,24.0625,36.703125
1702,-0.25,0.188232421875,-0.1943359375,48.0,-224.0,16.9375,36.703125
1704,-0.25,0.188232421875,-0.1943359375,48.0,-224.0,16.9375,36.703125
1705,-0.2236328125,0.188720703125,-0.178466796875,50.625,-225.0625,15.6875,36.703125
1707,-0.2236328125,0.188720703125,-0.178466796875,50.625,-225.0625,15.6875,36.703125
1709,-0.244140625,0.14892578125,-0.177490234375,51.5,-224.125,17.0,36.703125
1711,-0.244140625,0.14892578125,-0.177490234375,51.5,-224.125,17.0,36.703125
1713,-0.244140625,0.14892578125,-0.177490234375,51.5,-224.125,17.0,36.703125
1715,-0.24560546875,0.102294921875,-0.17724609375,54.3125,-223.8125,18.5,36.703125
1717,-0.24560546875,0.102294921875,-0.17724609375,54.3125,-223.8125,18.5,36.703125
1719,-0.23828125,0.0576171875,-0.176513671875,57.1875,-225.1875,20.125,36.703125
1721,-0.23828125,0.0576171875,-0.176513671875,57.1875,-225.1875,20.125,36.703125
1723,-0.23486328125,0.013427734375,-0.17333984375,58.0,-226.875,22.75,36.703125
1725,-0.23486328125,0.013427734375,-0.17333984375,58.0,-226.875,22.75,36.703125
1727,-0.2373046875,-0.02197265625,-0.162353515625,56.5625,-228.25,26.5625,36.703125
1729,-0.2373046875,-0.02197265625,-0.162353515625,56.5625,-228.25,26.5625,36.703125
1731,-0.2373046875,-0.02197265625,-0.162353515625,56.5625,-228.25,26.5625,36.703125
1733,-0.242919921875,-0.03662109375,-0.142578125,52.625,-229.5,31.375,36.703125
1735,-0.242919921875,-0.03662109375,-0.142578125,52.625,-229.5,31.375,36.703125
1737,-0.25244140625,-0.050537109375,-0.117431640625,48.0625,-230.375,36.9375,36.703125
1739,-0.25244140625,-0.050537109375,-0.117431640625,48.0625,-230.375,36.9375,36.703125
1741,-0.260498046875,-0.0615234375,-0.086181640625,44.6875,-231.375,42.75,36.703125
1743,-0.260498046875,-0.0615234375,-0.086181640625,44.6875,-231.375,42.75,36.703125
1745,-0.261474609375,-0.073974609375,-0.03759765625,42.625,-232.1875,48.375,36.703125
1747,-0.261474609375,-0.073974609375,-0.03759765625,42.625,-232.1875,48.375,36.703125
1749,-0.261474609375,-0.0888671875,0.029052734375,40.3125,-233.75,53.3125,36.703125
1751,-0.2685546875,-0.0888671875,0.029052734375,40.3125,-233.75,53.3125,36.703125
1753,-0.2685546875,-0.0888671875,0.029052734375,40.3125,-233.75,53.3125,36.703125
1755,-0.28173828125,-0.110107421875,0.0947265625,36.9375,-236.125,57.75,36.703125
1757,-0.28173828125,-0.110107421875,0.0947265625,36.9375,-236.125,57.75,36.703125
1758,-0.30029296875,-0.128662109375,0.14990234375,32.375,-238.0625,62.0625,36.703125
1761,-0.30029296875,-0.128662109375,0.14990234375,32.375,-238.0625,62.0625,36.703125
1763,-0.31494140625,-0.12744140625,0.20263671875,26.625,-238.5,66.25,36.703125
1765,-0.31494140625,-0.12744140625,0.20263671875,26.625,-238.5,66.25,36.703125
1767,-0.31494140625,-0.12744140625,0.2626953125,20.125,-237.75,69.4375,36.703125
1769,-0.33056640625,-0.111083984375,0.2626953125,20.125,-237.75,69.4375,36.703125
1771,-0.33056640625,-0.111083984375,0.2626953125,20.125,-237.75,69.4375,36.703125
1772,-0.351318359375,-0.0927734375,0.320556640625,13.4375,-236.6875,71.1875,36.703125
1774,-0.351318359375,-0.0927734375,0.320556640625,13.4375,-236.6875,71.1875,36.703125
1776,-0.368896484375,-0.071044921875,0.3642578125,6.9375,-234.8125,72.0625,36.703125
1778,-0.368896484375,-0.071044921875,0.3642578125,6.9375,-234.8125,72.0625,36.703125
1780,-0.37939453125,-0.04541015625,0.39599609375,1.0625,-232.0625,71.75,36.703125
1783,-0.37939453125,-0.04541015625,0.39599609375,1.0625,-232.0625,71.75,36.703125
1785,-0.385009765625,-0.0126953125,0.41748046875,-3.5625,-228.25,70.8125,36.703125
1787,-0.385009765625,-0.0126953125,0.41748046875,-3.5625,-228.25,70.8125,36.703125
1789,-0.385009765625,-0.0126953125,0.41748046875,-3.5625,-228.25,70.8125,36.703125
1790,-0.395751953125,0.02734375,0.433349609375,-6.8125,-222.6875,70.25,36.703125
1792,-0.395751953125,0.02734375,0.433349609375,-6.8125,-222.6875,70.25,36.703125
1794,-0.41748046875,0.064208984375,0.451904296875,-8.5,-216.0625,69.4375,36.703125
1796,-0.41748046875,0.064208984375,0.451904296875,-8.5,-216.0625,69.4375,36.703125
1798,-0.436279296875,0.093505859375,0.475341796875,-9.1875,-209.5625,68.1875,36.703125
1800,-0.436279296875,0.093505859375,0.475341796875,-9.1875,-209.5625,68.1875,36.703125
1802,-0.436279296875,0.093505859375,0.475341796875,-9.1875,-204.125,66.6875,36.703125
1804,-0.44384765625,0.115478515625,0.4921875,-9.5,-204.125,66.6875,36.703125
1806,-0.44384765625,0.115478515625,0.4921875,-9.5,-204.125,66.6875,36.703125
1808,-0.447021484375,0.13232421875,0.50732421875,-9.5625,-200.1875,64.6875,36.703125
1810,-0.447021484375,0.13232421875,0.50732421875,-9.5625,-200.1875,64.6875,36.703125
1812,-0.449462890625,0.141845703125,0.526611328125,-9.1875,-197.625,62.5625,36.703125
1814,-0.449462890625,0.141845703125,0.526611328125,-9.1875,-197.625,62.5625,36.703125
1816,-0.4580078125,0.149169921875,0.55322265625,-8.5625,-196.4375,60.75,36.703125
1818,-0.4580078125,0.149169921875,0.55322265625,-8.5625,-196.4375,60.75,36.703125
1820,-0.4580078125,0.1572265625,0.581298828125,-7.625,-195.8125,58.1875,36.703125
1822,-0.477294921875,0.1572265625,0.581298828125,-7.625,-195.8125,58.1875,36.703125
1823,-0.477294921875,0.1572265625,0.581298828125,-7.625,-195.8125,58.1875,36.703125
1826,-0.50830078125,0.163818359375,0.607666015625,-7.1875,-195.5,54.5625,36.71875
1828,-0.50830078125,0.163818359375,0.607666015625,-7.1875,-195.5,54.5625,36.71875
1830,-0.548828125,0.162109375,0.638427734375,-7.4375,-194.9375,50.375,36.71875
1832,-0.548828125,0.162109375,0.638427734375,-7.4375,-194.9375,50.375,36.71875
1834,-0.59375,0.159912109375,0.67041015625,-7.5625,-193.875,46.125,36.71875
1836,-0.59375,0.159912109375,0.67041015625,-7.5625,-193.875,46.125,36.71875
1837,-0.59375,0.159912109375,0.67041015625,-7.5625,-192.3125,42.1875,36.71875
1839,-0.638671875,0.1591796875,0.704833984375,-7.5,-192.3125,42.1875,36.71875
1841,-0.638671875,0.1591796875,0.704833984375,-7.5,-192.3125,42.1875,36.71875
1843,-0.68310546875,0.158935546875,0.73974609375,-8.125,-189.5625,38.75,36.71875
1845,-0.68310546875,0.158935546875,0.73974609375,-8.125,-189.5625,38.75,36.71875
1847,-0.74658203125,0.165283203125,0.778076171875,-8.875,-186.5,35.4375,36.71875
1849,-0.74658203125,0.165283203125,0.778076171875,-8.875,-186.5,35.4375,36.71875
1851,-0.809814453125,0.177978515625,0.818359375,-9.5625,-183.4375,32.3125,36.71875
1854,-0.809814453125,0.177978515625,0.818359375,-9.5625,-183.4375,32.3125,36.71875
1856,-0.87158203125,0.1923828125,0.852783203125,-10.3125,-178.8125,30.125,36.71875
1857,-0.87158203125,0.1923828125,0.852783203125,-10.3125,-178.8125,30.125,36.71875
1859,-0.87158203125,0.1923828125,0.852783203125,-10.3125,-178.8125,30.125,36.71875
1861,-0.928955078125,0.2001953125,0.89111328125,-10.0625,-172.875,29.125,36.71875
1863,-0.928955078125,0.2001953125,0.89111328125,-10.0625,-172.875,29.125,36.71875
1865,-0.984619140625,0.21337890625,0.93017578125,-8.1875,-165.25,29.125,36.71875
1867,-0.984619140625,0.21337890625,0.93017578125,-8.1875,-165.25,29.125,36.71875
1869,-1.037841796875,0.23388671875,0.963623046875,-6.625,-155.4375,29.0,36.71875
1872,-1.037841796875,0.23388671875,0.963623046875,-6.625,-155.4375,29.0,36.71875
1873,-1.09423828125,0.260498046875,0.97119140625,-6.6875,-143.75,29.0625,36.71875
1875,-1.09423828125,0.260498046875,0.97119140625,-6.6875,-143.75,29.0625,36.71875
1877,-1.15673828125,0.296142578125,0.967041015625,-8.625,-129.9375,29.6875,36.71875
1879,-1.140625,0.296142578125,0.967041015625,-8.625,-129.9375,29.6875,36.71875
1881,-1.140625,0.296142578125,0.967041015625,-8.625,-129.9375,29.6875,36.71875
1883,-1.163330078125,0.3271484375,0.969482421875,-12.875,-115.0,30.125,36.71875
1885,-1.163330078125,0.3271484375,0.969482421875,-12.875,-115.0,30.125,36.71875
1887,-1.160888671875,0.353271484375,0.97021484375,-16.9375,-100.9375,29.375,36.71875
1889,-1.160888671875,0.353271484375,0.97021484375,-16.9375,-100.9375,29.375,36.71875
1891,-1.146240234375,0.3662109375,0.9599609375,-19.5625,-88.1875,27.4375,36.71875
1893,-1.146240234375,0.3662109375,0.9599609375,-19.5625,-88.1875,27.4375,36.71875
1895,-1.146240234375,0.376220703125,0.937255859375,-21.25,-77.0625,25.5,36.71875
1897,-1.132568359375,0.376220703125,0.937255859375,-21.25,-77.0625,25.5,36.71875
1899,-1.132568359375,0.376220703125,0.937255859375,-21.25,-77.0625,25.5,36.71875
1901,-1.1259765625,0.386474609375,0.911376953125,-21.9375,-68.0625,22.6875,36.71875
1903,-1.1259765625,0.386474609375,0.911376953125,-21.9375,-68.0625,22.6875,36.71875
1905,-1.1240234375,0.392578125,0.8955078125,-21.6875,-61.625,18.75,36.71875
1907,-1.1240234375,0.392578125,0.8955078125,-21.6875,-61.625,18.75,36.71875
1909,-1.123779296875,0.3896484375,0.877685546875,-20.4375,-57.1875,14.6875,36.71875
1911,-1.123779296875,0.3896484375,0.877685546875,-20.4375,-57.1875,14.6875,36.71875
1912,-1.123779296875,0.3896484375,0.877685546875,-20.4375,-57.1875,14.6875,36.71875
1915,-1.132080078125,0.38623046875,0.84765625,-18.375,-54.0625,11.0625,36.71875
1917,-1.132080078125,0.38623046875,0.84765625,-18.375,-54.0625,11.0625,36.71875
1919,-1.15576171875,0.37744140625,0.83203125,-16.9375,-51.1875,7.1875,36.71875
1921,-1.15576171875,0.37744140625,0.83203125,-16.9375,-51.1875,7.1875,36.71875
1923,-1.18359375,0.358154296875,0.83251953125,-16.0,-48.5625,2.5625,36.71875
1925,-1.18359375,0.358154296875,0.83251953125,-16.0,-48.5625,2.5625,36.71875
1927,-1.200927734375,0.32958984375,0.839111328125,-13.9375,-46.125,-2.125,36.71875
1929,-1.200927734375,0.32958984375,0.839111328125,-13.9375,-46.125,-2.125,36.71875
1930,-1.200927734375,0.32958984375,0.839111328125,-13.9375,-42.625,-5.0625,36.71875
1932,-1.21826171875,0.303466796875,0.83935546875,-10.75,-42.625,-5.0625,36.71875
1934,-1.21826171875,0.303466796875,0.83935546875,-10.75,-42.625,-5.0625,36.71875
1937,-1.23388671875,0.28515625,0.838134765625,-7.4375,-37.875,-5.625,36.71875
1939,-1.23388671875,0.28515625,0.838134765625,-7.4375,-37.875,-5.625,36.71875
1940,-1.237548828125,0.276123046875,0.837158203125,-4.4375,-32.25,-4.875,36.71875
1942,-1.237548828125,0.276123046875,0.837158203125,-4.4375,-32.25,-4.875,36.71875
1944,-1.24072265625,0.269287109375,0.82373046875,-2.125,-25.9375,-3.9375,36.71875
1946,-1.24072265625,0.269287109375,0.82373046875,-2.125,-25.9375,-3.9375,36.71875
1948,-1.24072265625,0.269287109375,0.82373046875,-2.125,-19.0,-2.75,36.71875
1950,-1.235595703125,0.2685546875,0.7998046875,-0.25,-19.0,-2.75,36.71875
1952,-1.235595703125,0.2685546875,0.7998046875,-0.25,-19.0,-2.75,36.71875
1954,-1.2265625,0.2734375,0.772705078125,1.5,-12.125,-2.0625,36.71875
1956,-1.2265625,0.2734375,0.772705078125,1.5,-12.125,-2.0625,36.71875
1957,-1.211669921875,0.28076171875,0.745849609375,2.4375,-5.6875,-2.875,36.71875
1960,-1.211669921875,0.28076171875,0.745849609375,2.4375,-5.6875,-2.875,36.71875
1962,-1.1962890625,0.292236328125,0.713623046875,2.4375,-0.3125,-4.625,36.71875
1964,-1.1962890625,0.292236328125,0.713623046875,2.4375,-0.3125,-4.625,36.71875
1966,-1.1962890625,0.292236328125,0.713623046875,2.4375,-0.3125,-4.625,36.71875
1967,-1.184814453125,0.30615234375,0.67724609375,1.625,4.0625,-7.0,36.703125
1969,-1.184814453125,0.30615234375,0.67724609375,1.625,4.0625,-7.0,36.703125
1971,-1.1806640625,0.31689453125,0.6396484375,0.0625,7.625,-9.9375,36.703125
1973,-1.1806640625,0.31689453125,0.6396484375,0.0625,7.625,-9.9375,36.703125
1975,-1.178466796875,0.319091796875,0.598876953125,-1.1875,10.0625,-13.125,36.703125
1977,-1.178466796875,0.319091796875,0.598876953125,-1.1875,10.0625,-13.125,36.703125
1979,-1.178466796875,0.319091796875,0.598876953125,-1.1875,10.0625,-13.125,36.703125
1981,-1.175537109375,0.31005859375,0.555419921875,-1.9375,12.5,-16.375,36.703125
1983,-1.175537109375,0.31005859375,0.555419921875,-1.9375,12.5,-16.375,36.703125
1985,-1.173095703125,0.2958984375,0.506591796875,-2.3125,14.8125,-18.6875,36.703125
1987,-1.173095703125,0.2958984375,0.506591796875,-2.3125,14.8125,-18.6875,36.703125
1989,-1.171630859375,0.282958984375,0.45947265625,-1.9375,17.25,-19.875,36.703125
1991,-1.171630859375,0.282958984375,0.45947265625,-1.9375,17.25,-19.875,36.703125
1993,-1.17041015625,0.267333984375,0.420166015625,-0.8125,19.1875,-20.0,36.703125
1995,-1.17041015625,0.267333984375,0.420166015625,-0.8125,19.1875,-20.0,36.703125
1997,-1.17041015625,0.267333984375,0.420166015625,0.3125,20.875,-19.5625,36.703125
1999,-1.166259765625,0.25341796875,0.396240234375,0.3125,20.875,-19.5625,36.703125
2001,-1.166259765625,0.25341796875,0.396240234375,0.3125,20.875,-19.5625,36.703125
2003,-1.15869140625,0.24169921875,0.3798828125,1.0625,22.25,-18.9375,36.703125
2005,-1.15869140625,0.24169921875,0.3798828125,1.0625,22.25,-18.9375,36.703125
2007,-1.15380859375,0.233154296875,0.368408203125,1.75,23.3125,-17.9375,36.703125
2009,-1.15380859375,0.233154296875,0.368408203125,1.75,23.3125,-17.9375,36.703125
2011,-1.15185546875,0.221435546875,0.35205078125,2.5625,23.875,-16.1875,36.703125
2013,-1.15185546875,0.221435546875,0.35205078125,2.5625,23.875,-16.1875,36.703125
2015,-1.146484375,0.209228515625,0.3310546875,3.5,24.3125,-14.375,36.703125
2017,-1.146484375,0.209228515625,0.3310546875,3.5,24.3125,-14.375,36.703125
2019,-1.146484375,0.209228515625,0.3310546875,3.5,24.3125,-14.375,36.703125
2021,-1.135009765625,0.202392578125,0.311767578125,4.9375,24.1875,-12.6875,36.703125
2023,-1.135009765625,0.202392578125,0.311767578125,4.9375,24.1875,-12.6875,36.703125
2025,-1.12255859375,0.19775390625,0.2978515625,6.3125,23.9375,-10.625,36.703125
2027,-1.12255859375,0.19775390625,0.2978515625,6.3125,23.9375,-10.625,36.703125
2029,-1.116943359375,0.192626953125,0.2861328125,7.125,23.875,-8.375,36.703125
2031,-1.116943359375,0.192626953125,0.2861328125,7.125,23.875,-8.375,36.703125
2033,-1.11328125,0.1875,0.279052734375,6.875,23.1875,-6.6875,36.703125
2035,-1.11328125,0.1875,0.279052734375,6.875,23.1875,-6.6875,36.703125
2036,-1.11328125,0.1875,0.279052734375,6.875,23.1875,-6.6875,36.703125
2038,-1.113037109375,0.1787109375,0.2744140625,4.8125,22.6875,-6.125,36.703125
2040,-1.113037109375,0.1787109375,0.2744140625,4.8125,22.6875,-6.125,36.703125
2042,-1.113525390625,0.16650390625,0.265625,1.0,22.5625,-6.625,36.703125
2044,-1.113525390625,0.16650390625,0.265625,1.0,22.5625,-6.625,36.703125
2046,-1.1103515625,0.151611328125,0.262939453125,-3.9375,22.4375,-7.4375,36.703125
2049,-1.1103515625,0.151611328125,0.262939453125,-3.9375,22.4375,-7.4375,36.703125
2050,-1.10400390625,0.140380859375,0.260498046875,-9.1875,22.0625,-8.5625,36.703125
2053,-1.10400390625,0.140380859375,0.260498046875,-9.1875,22.0625,-8.5625,36.703125
2055,-1.09619140625,0.136962890625,0.2431640625,-13.125,21.5625,-9.0625,36.703125
2057,-1.09619140625,0.136962890625,0.2431640625,-13.125,21.5625,-9.0625,36.703125
2059,-1.09619140625,0.136962890625,0.2431640625,-13.125,21.5625,-9.0625,36.703125
2061,-1.08984375,0.12890625,0.234619140625,-15.4375,21.0,-9.375,36.703125
2062,-1.08984375,0.12890625,0.234619140625,-15.4375,21.0,-9.375,36.703125
2064,-1.080078125,0.123046875,0.224365234375,-15.75,20.375,-8.4375,36.703125
2066,-1.080078125,0.123046875,0.224365234375,-15.75,20.375,-8.4375,36.703125
2068,-1.072021484375,0.1181640625,0.214111328125,-14.5625,19.625,-6.625,36.703125
2070,-1.072021484375,0.1181640625,0.214111328125,-14.5625,19.625,-6.625,36.703125
2073,-1.064697265625,0.117919921875,0.212646484375,-12.75,18.6875,-4.5625,36.703125
2074,-1.064697265625,0.117919921875,0.212646484375,-12.75,18.6875,-4.5625,36.703125
2076,-1.064697265625,0.117919921875,0.212646484375,-12.75,18.6875,-4.5625,36.703125
2078,-1.056640625,0.125,0.21533203125,-10.5,17.4375,-2.625,36.703125
2080,-1.056640625,0.125,0.21533203125,-10.5,17.4375,-2.625,36.703125
2082,-1.04931640625,0.138671875,0.220703125,-8.0625,16.25,-0.5625,36.703125
2084,-1.04931640625,0.138671875,0.220703125,-8.0625,16.25,-0.5625,36.703125
2086,-1.044189453125,0.156494140625,0.22998046875,-5.6875,15.5625,1.1875,36.703125
2088,-1.044189453125,0.156494140625,0.22998046875,-5.6875,15.5625,1.1875,36.703125
2090,-1.044189453125,0.156494140625,0.22998046875,-5.6875,15.5625,1.1875,36.703125
2092,-1.038818359375,0.16845703125,0.246337890625,-4.125,15.375,1.75,36.703125
2094,-1.038818359375,0.16845703125,0.246337890625,-4.125,15.375,1.75,36.703125
2096,-1.02880859375,0.193603515625,0.245361328125,-2.5625,15.125,0.9375,36.703125
2098,-1.02880859375,0.193603515625,0.245361328125,-2.5625,15.125,0.9375,36.703125
2100,-1.010986328125,0.211669921875,0.243896484375,-0.0625,15.1875,-0.0625,36.703125
2102,-1.010986328125,0.211669921875,0.243896484375,-0.0625,15.1875,-0.0625,36.703125
2104,-1.00244140625,0.2255859375,0.246826171875,2.125,15.6875,-1.5,36.703125
2106,-1.00244140625,0.2255859375,0.246826171875,2.125,15.6875,-1.5,36.703125
2107,-1.00244140625,0.2255859375,0.246826171875,2.125,15.6875,-1.5,36.703125
2109,-1.001953125,0.22900390625,0.249755859375,4.3125,15.875,-3.375,36.7109375
2111,-1.001953125,0.22900390625,0.249755859375,4.3125,15.875,-3.375,36.7109375
2113,-1.006591796875,0.224853515625,0.256103515625,5.8125,15.75,-5.5625,36.7109375
2116,-1.006591796875,0.224853515625,0.256103515625,5.8125,15.75,-5.5625,36.7109375
2118,-1.009033203125,0.214111328125,0.2587890625,6.0,15.9375,-7.3125,36.7109375
2119,-1.009033203125,0.214111328125,0.2587890625,6.0,15.9375,-7.3125,36.7109375
2121,-1.013671875,0.19873046875,0.259521484375,5.5625,16.5,-8.4375,36.7109375
2123,-1.013671875,0.19873046875,0.259521484375,5.5625,16.5,-8.4375,36.7109375
2125,-1.013671875,0.19873046875,0.259521484375,5.5625,16.5,-8.4375,36.7109375
2127,-1.01708984375,0.18115234375,0.256103515625,4.9375,17.1875,-9.5,36.7109375
2129,-1.01708984375,0.18115234375,0.256103515625,4.9375,17.1875,-9.5,36.7109375
2131,-1.01318359375,0.162841796875,0.25146484375,4.5,17.9375,-10.25,36.7109375
2133,-1.01318359375,0.162841796875,0.25146484375,4.5,17.9375,-10.25,36.7109375
2135,-1.0078125,0.1484375,0.251708984375,4.9375,18.9375,-10.625,36.7109375
2137,-1.0078125,0.1484375,0.251708984375,4.9375,18.9375,-10.625,36.7109375
2140,-1.009033203125,0.13232421875,0.255615234375,6.0,20.125,-10.625,36.7109375
2142,-1.009033203125,0.13232421875,0.255615234375,6.0,20.125,-10.625,36.7109375
2143,-1.014404296875,0.114013671875,0.256103515625,7.375,21.4375,-10.4375,36.7109375
2146,-1.014404296875,0.114013671875,0.256103515625,7.375,21.4375,-10.4375,36.7109375
2147,-1.014404296875,0.114013671875,0.256103515625,7.375,22.875,-9.875,36.7109375
2149,-1.015380859375,0.093994140625,0.25341796875,8.3125,22.875,-9.875,36.7109375
2151,-1.015380859375,0.093994140625,0.25341796875,8.3125,22.875,-9.875,36.7109375
2153,-1.01806640625,0.08544921875,0.243408203125,8.625,23.9375,-8.9375,36.7109375
2155,-1.01806640625,0.08544921875,0.243408203125,8.625,23.9375,-8.9375,36.7109375
2157,-1.0263671875,0.08935546875,0.236083984375,7.6875,25.25,-7.5,36.7109375
2159,-1.0263671875,0.08935546875,0.236083984375,7.6875,25.25,-7.5,36.7109375
2162,-1.035400390625,0.09423828125,0.232177734375,5.6875,26.625,-5.375,36.7109375
2164,-1.035400390625,0.09423828125,0.232177734375,5.6875,26.625,-5.375,36.7109375
2166,-1.0390625,0.10302734375,0.2294921875,2.25,28.0,-3.0625,36.7109375
2167,-1.0390625,0.10302734375,0.2294921875,2.25,28.0,-3.0625,36.7109375
2169,-1.0390625,0.10302734375,0.2294921875,2.25,28.0,-3.0625,36.7109375
2171,-1.042724609375,0.115966796875,0.22216796875,-1.5625,29.0,-1.4375,36.7109375
2173,-1.042724609375,0.115966796875,0.22216796875,-1.5625,29.0,-1.4375,36.7109375
2175,-1.040771484375,0.124755859375,0.220947265625,-4.4375,29.6875,-1.3125,36.7109375
2177,-1.040771484375,0.124755859375,0.220947265625,-4.4375,29.6875,-1.3125,36.7109375
2179,-1.026611328125,0.13818359375,0.22412109375,-7.0,29.5625,-1.625,36.7109375
2181,-1.026611328125,0.13818359375,0.22412109375,-7.0,29.5625,-1.625,36.7109375
2183,-1.0146484375,0.1708984375,0.21826171875,-9.4375,29.4375,-1.0625,36.7109375
2185,-1.0146484375,0.1708984375,0.21826171875,-9.4375,29.4375,-1.0625,36.7109375
2187,-1.0146484375,0.1708984375,0.21826171875,-9.4375,29.4375,-1.0625,36.7109375
2189,-1.01611328125,0.201904296875,0.213134765625,-13.5,30.1875,-0.9375,36.7109375
2191,-1.01611328125,0.201904296875,0.213134765625,-13.5,30.1875,-0.9375,36.7109375
2193,-1.01708984375,0.224853515625,0.21923828125,-18.6875,31.4375,-2.8125,36.7109375
2195,-1.01708984375,0.224853515625,0.21923828125,-18.6875,31.4375,-2.8125,36.7109375
2197,-1.015869140625,0.241455078125,0.2236328125,-23.25,32.5625,-6.25,36.7109375
2199,-1.015869140625,0.241455078125,0.2236328125,-23.25,32.5625,-6.25,36.7109375
2201,-1.015869140625,0.241455078125,0.216796875,-25.4375,33.625,-9.875,36.7109375
2203,-1.011962890625,0.245849609375,0.216796875,-25.4375,33.625,-9.875,36.7109375
2205,-1.011962890625,0.237060546875,0.211181640625,-25.0625,34.5625,-12.5625,36.7109375
2207,-1.000732421875,0.237060546875,0.211181640625,-25.0625,34.5625,-12.5625,36.7109375
2209,-1.000732421875,0.237060546875,0.211181640625,-25.0625,34.5625,-12.5625,36.7109375
2211,-0.994384765625,0.225830078125,0.202392578125,-22.5,35.125,-14.125,36.7109375
2213,-0.994384765625,0.225830078125,0.202392578125,-22.5,35.125,-14.125,36.7109375
2215,-0.989501953125,0.216552734375,0.18603515625,-19.6875,35.875,-14.625,36.7109375
2217,-0.989501953125,0.216552734375,0.18603515625,-19.6875,35.875,-14.625,36.7109375
2219,-0.981201171875,0.20361328125,0.171875,-18.0,36.75,-14.4375,36.7109375
2221,-0.981201171875,0.20361328125,0.171875,-18.0,36.75,-14.4375,36.7109375
2223,-0.981201171875,0.20361328125,0.171875,-18.0,36.75,-14.4375,36.7109375
2224,-0.97119140625,0.189453125,0.166015625,-16.4375,37.1875,-14.1875,36.7109375
2227,-0.97119140625,0.189453125,0.166015625,-16.4375,37.1875,-14.1875,36.7109375
2229,-0.9677734375,0.174560546875,0.16455078125,-13.9375,36.875,-14.0,36.7109375
2231,-0.9677734375,0.174560546875,0.16455078125,-13.9375,36.875,-14.0,36.7109375
2233,-0.9658203125,0.155517578125,0.166015625,-11.0625,36.0,-13.75,36.7109375
2234,-0.9658203125,0.155517578125,0.166015625,-11.0625,36.0,-13.75,36.7109375
2236,-0.965576171875,0.141845703125,0.168701171875,-8.125,35.0625,-12.625,36.7109375
2238,-0.965576171875,0.141845703125,0.168701171875,-8.125,35.0625,-12.625,36.7109375
2240,-0.965576171875,0.141845703125,0.168701171875,-8.125,35.0625,-12.625,36.7109375
2242,-0.97216796875,0.13720703125,0.166748046875,-7.0625,34.4375,-11.25,36.7109375
2244,-0.97216796875,0.13720703125,0.166748046875,-7.0625,34.4375,-11.25,36.7109375
2246,-0.981201171875,0.13916015625,0.168701171875,-8.0625,34.6875,-10.4375,36.7109375
2248,-0.981201171875,0.13916015625,0.168701171875,-8.0625,34.6875,-10.4375,36.7109375
2250,-0.98583984375,0.140625,0.17529296875,-9.5625,35.0625,-10.6875,36.7109375
2252,-0.98583984375,0.140625,0.17529296875,-9.5625,35.0625,-10.6875,36.7109375
2255,-0.985107421875,0.1396484375,0.175048828125,-11.0,34.6875,-10.625,36.7109375
2257,-0.985107421875,0.1396484375,0.175048828125,-11.0,34.6875,-10.625,36.7109375
2258,-0.988525390625,0.138671875,0.17822265625,-12.5,34.5625,-9.9375,36.7109375
2260,-0.988525390625,0.138671875,0.17822265625,-12.5,34.5625,-9.9375,36.7109375
2262,-0.988525390625,0.138671875,0.17822265625,-12.5,34.5625,-9.9375,36.7109375
2264,-0.996337890625,0.144775390625,0.1875,-15.3125,35.125,-9.125,36.7109375
2266,-0.996337890625,0.144775390625,0.1875,-15.3125,35.125,-9.125,36.7109375
2268,-1.00439453125,0.15576171875,0.203857421875,-19.375,35.5625,-8.25,36.7109375
2271,-1.00439453125,0.15576171875,0.203857421875,-19.375,35.5625,-8.25,36.7109375
2273,-1.010986328125,0.157470703125,0.220947265625,-23.625,35.125,-7.5625,36.7109375
2275,-1.010986328125,0.157470703125,0.220947265625,-23.625,35.125,-7.5625,36.7109375
2277,-1.012451171875,0.156982421875,0.22900390625,-26.25,35.25,-6.8125,36.7109375
2278,-1.012451171875,0.156982421875,0.22900390625,-26.25,35.25,-6.8125,36.7109375
2280,-1.012451171875,0.156982421875,0.22900390625,-26.25,35.8125,-5.5,36.7109375
2282,-1.01513671875,0.158203125,0.23681640625,-26.0625,35.8125,-5.5,36.7109375
2284,-1.01513671875,0.158203125,0.23681640625,-26.0625,35.8125,-5.5,36.7109375
2286,-1.023193359375,0.158935546875,0.247314453125,-24.0,37.0,-3.375,36.7109375
2288,-1.023193359375,0.158935546875,0.247314453125,-24.0,37.0,-3.375,36.7109375
2291,-1.03271484375,0.16650390625,0.251708984375,-21.5,38.9375,-0.9375,36.7109375
2293,-1.03271484375,0.16650390625,0.251708984375,-21.5,38.9375,-0.9375,36.7109375
2295,-1.037353515625,0.177734375,0.253662109375,-19.625,41.8125,1.125,36.7109375
2297,-1.037353515625,0.177734375,0.253662109375,-19.625,41.8125,1.125,36.7109375
2299,-1.031494140625,0.1923828125,0.258056640625,-17.75,45.375,2.3125,36.7109375
2301,-1.031494140625,0.1923828125,0.258056640625,-17.75,45.375,2.3125,36.7109375
2303,-1.022705078125,0.204833984375,0.25830078125,-14.5625,48.75,3.375,36.7109375
2305,-1.022705078125,0.204833984375,0.25830078125,-14.5625,48.75,3.375,36.7109375
2307,-1.022705078125,0.204833984375,0.25830078125,-14.5625,48.75,3.375,36.7109375
2309,-1.01708984375,0.211669921875,0.25537109375,-10.75,51.8125,4.125,36.7109375
2311,-1.01708984375,0.211669921875,0.25537109375,-10.75,51.8125,4.125,36.7109375
2313,-1.013427734375,0.211181640625,0.251953125,-6.4375,54.5625,4.125,36.7109375
2315,-1.013427734375,0.211181640625,0.251953125,-6.4375,54.5625,4.125,36.7109375
2317,-1.0107421875,0.207763671875,0.24462890625,-2.125,56.375,3.5625,36.7109375
2319,-1.0107421875,0.207763671875,0.24462890625,-2.125,56.375,3.5625,36.7109375
2321,-1.00634765625,0.200439453125,0.23291015625,1.75,57.375,2.8125,36.7109375
2323,-1.00634765625,0.200439453125,0.23291015625,1.75,57.375,2.8125,36.7109375
2325,-1.00634765625,0.194580078125,0.216064453125,4.8125,58.1875,2.4375,36.7109375
2327,-1.0009765625,0.194580078125,0.216064453125,4.8125,58.1875,2.4375,36.7109375
2329,-1.0009765625,0.194580078125,0.216064453125,4.8125,58.1875,2.4375,36.7109375
2331,-0.998291015625,0.188720703125,0.2060546875,6.625,59.1875,2.1875,36.7109375
2332,-0.998291015625,0.188720703125,0.2060546875,6.625,59.1875,2.1875,36.7109375
2334,-0.998779296875,0.18017578125,0.200439453125,6.75,59.5625,1.75,36.7109375
2337,-0.998779296875,0.18017578125,0.200439453125,6.75,59.5625,1.75,36.7109375
2339,-0.991943359375,0.170654296875,0.196044921875,5.25,59.6875,1.375,36.7109375
2341,-0.991943359375,0.170654296875,0.196044921875,5.25,59.6875,1.375,36.7109375
2343,-0.981689453125,0.158447265625,0.193359375,2.75,59.625,0.5625,36.7109375
2345,-0.981689453125,0.158447265625,0.193359375,2.75,59.625,0.5625,36.7109375
2347,-0.981689453125,0.158447265625,0.193359375,2.75,59.625,-0.3125,36.7109375
2349,-0.97265625,0.147216796875,0.18896484375,0.0,59.6875,-0.3125,36.7109375
2351,-0.97265625,0.147216796875,0.18896484375,0.0,59.6875,-0.3125,36.7109375
2353,-0.96728515625,0.136962890625,0.186767578125,-3.1875,59.4375,-1.25,36.7109375
2354,-0.96728515625,0.136962890625,0.186767578125,-3.1875,59.4375,-1.25,36.7109375
2356,-0.96533203125,0.1279296875,0.18798828125,-6.625,58.75,-1.9375,36.7109375
2358,-0.96533203125,0.1279296875,0.18798828125,-6.625,58.75,-1.9375,36.7109375
2361,-0.964111328125,0.11767578125,0.19287109375,-10.4375,57.875,-2.75,36.7109375
2362,-0.964111328125,0.11767578125,0.19287109375,-10.4375,57.875,-2.75,36.7109375
2364,-0.964111328125,0.11767578125,0.19287109375,-10.4375,57.875,-3.5625,36.7109375
2366,-0.96337890625,0.10888671875,0.198974609375,-14.625,57.0625,-3.5625,36.7109375
2368,-0.96337890625,0.10888671875,0.198974609375,-14.625,57.0625,-3.5625,36.7109375
2370,-0.96484375,0.103515625,0.205078125,-18.625,56.5625,-4.125,36.7109375
2372,-0.96484375,0.103515625,0.205078125,-18.625,56.5625,-4.125,36.7109375
2374,-0.970703125,0.097900390625,0.211181640625,-22.5,56.5625,-4.75,36.7109375
2376,-0.970703125,0.097900390625,0.211181640625,-22.5,56.5625,-4.75,36.7109375
2378,-0.970703125,0.097900390625,0.211181640625,-25.75,57.1875,-5.5,36.7109375
2380,-0.97607421875,0.095947265625,0.217529296875,-25.75,57.1875,-5.5,36.7109375
2382,-0.97607421875,0.095947265625,0.217529296875,-25.75,57.1875,-5.5,36.7109375
2384,-0.98193359375,0.096923828125,0.226318359375,-29.125,58.375,-5.9375,36.7109375
2386,-0.98193359375,0.096923828125,0.226318359375,-29.125,58.375,-5.9375,36.7109375
2388,-0.989013671875,0.095947265625,0.235595703125,-32.875,59.75,-6.3125,36.7109375
2390,-0.989013671875,0.095947265625,0.235595703125,-32.875,59.75,-6.3125,36.7109375
2392,-0.9921875,0.096435546875,0.236328125,-36.1875,61.5625,-6.5625,36.71484375
2394,-0.9921875,0.096435546875,0.236328125,-36.1875,61.5625,-6.5625,36.71484375
2396,-0.9921875,0.096435546875,0.236328125,-36.1875,63.4375,-6.75,36.71484375
2398,-0.997314453125,0.096435546875,0.23828125,-38.375,63.4375,-6.75,36.71484375
2399,-0.997314453125,0.096435546875,0.23828125,-38.375,63.4375,-6.75,36.71484375
2401,-1.003662109375,0.084716796875,0.244140625,-39.8125,65.1875,-6.875,36.71484375
2403,-1.003662109375,0.084716796875,0.244140625,-39.8125,65.1875,-6.875,36.71484375
2406,-1.01025390625,0.078857421875,0.253662109375,-40.0,65.75,-6.5625,36.71484375
2408,-1.01025390625,0.078857421875,0.253662109375,-40.0,65.75,-6.5625,36.71484375
2410,-0.9990234375,0.094970703125,0.248046875,-40.6875,67.5625,-4.5625,36.71484375
2412,-0.9990234375,0.094970703125,0.248046875,-40.6875,67.5625,-4.5625,36.71484375
2414,-1.00146484375,0.115234375,0.2412109375,-40.9375,71.625,-1.875,36.71484375
2416,-1.00146484375,0.115234375,0.2412109375,-40.9375,71.625,-1.875,36.71484375
2417,-1.00146484375,0.115234375,0.2412109375,-40.9375,71.625,-1.875,36.71484375
2419,-1.004150390625,0.135009765625,0.239501953125,-39.75,75.375,0.375,36.71484375
2421,-1.004150390625,0.135009765625,0.239501953125,-39.75,75.375,0.375,36.71484375
2423,-0.99609375,0.151123046875,0.228271484375,-36.75,78.1875,2.6875,36.71484375
2425,-0.99609375,0.151123046875,0.228271484375,-36.75,78.1875,2.6875,36.71484375
2428,-0.980224609375,0.171875,0.20654296875,-31.6875,80.375,5.5625,36.71484375
2430,-0.980224609375,0.171875,0.20654296875,-31.6875,80.375,5.5625,36.71484375
2432,-0.962890625,0.1982421875,0.185546875,-24.875,82.375,8.75,36.71484375
2434,-0.962890625,0.1982421875,0.185546875,-24.875,82.375,8.75,36.71484375
2435,-0.962890625,0.1982421875,0.16845703125,-16.5625,83.0625,11.5625,36.71484375
2438,-0.951171875,0.22509765625,0.16845703125,-16.5625,83.0625,11.5625,36.71484375
2439,-0.951171875,0.22509765625,0.16845703125,-16.5625,83.0625,11.5625,36.71484375
2441,-0.94580078125,0.251708984375,0.151611328125,-7.6875,83.0625,13.8125,36.71484375
2443,-0.94580078125,0.251708984375,0.151611328125,-7.6875,83.0625,13.8125,36.71484375
2445,-0.9453125,0.271484375,0.1328125,1.5,82.875,15.1875,36.71484375
2447,-0.9453125,0.271484375,0.1328125,1.5,82.875,15.1875,36.71484375
2449,-0.94287109375,0.281982421875,0.115966796875,9.4375,82.6875,15.875,36.71484375
2451,-0.94287109375,0.281982421875,0.115966796875,9.4375,82.6875,15.875,36.71484375
2453,-0.93212890625,0.28271484375,0.103271484375,15.75,82.625,16.3125,36.71484375
2456,-0.93212890625,0.28271484375,0.103271484375,15.75,82.625,16.3125,36.71484375
2458,-0.918212890625,0.276611328125,0.095703125,20.125,82.8125,16.5,36.71484375
2460,-0.918212890625,0.276611328125,0.095703125,20.125,82.8125,16.5,36.71484375
2462,-0.918212890625,0.276611328125,0.095703125,20.125,82.8125,16.5,36.71484375
2464,-0.904296875,0.266845703125,0.083740234375,23.0,83.4375,16.6875,36.71484375
2466,-0.904296875,0.266845703125,0.083740234375,23.0,83.4375,16.6875,36.71484375
2468,-0.889892578125,0.260009765625,0.070556640625,24.375,83.75,17.0,36.71484375
2469,-0.889892578125,0.260009765625,0.070556640625,24.375,83.75,17.0,36.71484375
2471,-0.88037109375,0.25390625,0.062255859375,24.75,84.1875,17.375,36.71484375
2474,-0.88037109375,0.25390625,0.062255859375,24.75,84.1875,17.375,36.71484375
2476,-0.871337890625,0.2490234375,0.053955078125,24.5,84.875,17.3125,36.71484375
2478,-0.871337890625,0.2490234375,0.053955078125,24.5,84.875,17.3125,36.71484375
2480,-0.871337890625,0.2490234375,0.053955078125,24.5,84.875,17.3125,36.71484375
2482,-0.862548828125,0.24609375,0.05126953125,23.3125,85.3125,16.3125,36.71484375
2483,-0.862548828125,0.24609375,0.05126953125,23.3125,85.3125,16.3125,36.71484375
2485,-0.853759765625,0.243896484375,0.049560546875,21.4375,85.75,15.1875,36.71484375
2487,-0.853759765625,0.243896484375,0.049560546875,21.4375,85.75,15.1875,36.71484375
2489,-0.84619140625,0.243408203125,0.046630859375,19.4375,86.375,14.125,36.71484375
2491,-0.84619140625,0.243408203125,0.046630859375,19.4375,86.375,14.125,36.71484375
2493,-0.839599609375,0.242919921875,0.041748046875,17.25,87.5,12.3125,36.71484375
2496,-0.839599609375,0.242919921875,0.041748046875,17.25,87.5,12.3125,36.71484375
2498,-0.8310546875,0.245361328125,0.037353515625,15.0625,89.0625,10.3125,36.71484375
2500,-0.8310546875,0.245361328125,0.037353515625,15.0625,89.0625,10.3125,36.71484375
2501,-0.8310546875,0.245361328125,0.037353515625,15.0625,89.0625,10.3125,36.71484375
2503,-0.82275390625,0.25048828125,0.033447265625,12.9375,90.5625,8.3125,36.71484375
2505,-0.82275390625,0.25048828125,0.033447265625,12.9375,90.5625,8.3125,36.71484375
2507,-0.81591796875,0.24755859375,0.025390625,10.9375,92.3125,5.9375,36.71484375
2509,-0.81591796875,0.24755859375,0.025390625,10.9375,92.3125,5.9375,36.71484375
2511,-0.80859375,0.239013671875,0.016357421875,8.8125,94.125,3.375,36.71484375
2513,-0.80859375,0.239013671875,0.016357421875,8.8125,94.125,3.375,36.71484375
2515,-0.80859375,0.239013671875,0.016357421875,8.8125,94.125,3.375,36.71484375
2517,-0.802734375,0.232421875,0.0068359375,6.75,95.8125,0.8125,36.71484375
2519,-0.802734375,0.232421875,0.0068359375,6.75,95.8125,0.8125,36.71484375
2521,-0.79931640625,0.229248046875,-0.005615234375,5.125,97.125,-1.75,36.71484375
2523,-0.79931640625,0.229248046875,-0.005615234375,5.125,97.125,-1.75,36.71484375
2525,-0.79541015625,0.22705078125,-0.017333984375,3.625,98.0625,-4.3125,36.71484375
2527,-0.79541015625,0.22705078125,-0.017333984375,3.625,98.0625,-4.3125,36.71484375
2529,-0.79541015625,0.222412109375,-0.02880859375,1.625,98.5625,-6.75,36.71484375
2531,-0.79541015625,0.222412109375,-0.02880859375,1.625,98.5625,-6.75,36.71484375
2533,-0.79541015625,0.222412109375,-0.02880859375,1.625,98.5625,-6.75,36.71484375
2535,-0.79931640625,0.215087890625,-0.040283203125,-0.0625,99.0,-8.8125,36.70703125
2537,-0.79931640625,0.215087890625,-0.040283203125,-0.0625,99.0,-8.8125,36.70703125
2539,-0.80029296875,0.20654296875,-0.054443359375,-1.5625,99.625,-10.4375,36.70703125
2541,-0.80029296875,0.20654296875,-0.054443359375,-1.5625,99.625,-10.4375,36.70703125
2543,-0.8017578125,0.196533203125,-0.06640625,-2.375,100.5625,-11.625,36.70703125
2545,-0.8017578125,0.196533203125,-0.06640625,-2.375,100.5625,-11.625,36.70703125
2547,-0.8046875,0.1845703125,-0.076904296875,-2.6875,101.75,-12.375,36.70703125
2549,-0.8046875,0.1845703125,-0.076904296875,-2.6875,101.75,-12.375,36.70703125
2551,-0.8046875,0.1845703125,-0.076904296875,-2.6875,101.75,-12.75,36.70703125
2553,-0.80419921875,0.17724609375,-0.088623046875,-2.6875,103.1875,-12.75,36.70703125
2554,-0.80419921875,0.17724609375,-0.088623046875,-2.6875,103.1875,-12.75,36.70703125
2556,-0.805419921875,0.169677734375,-0.100341796875,-2.4375,104.8125,-12.4375,36.70703125
2558,-0.805419921875,0.169677734375,-0.100341796875,-2.4375,104.8125,-12.4375,36.70703125
2561,-0.806396484375,0.160400390625,-0.111572265625,-2.75,106.0,-12.0,36.70703125
2563,-0.806396484375,0.160400390625,-0.111572265625,-2.75,106.0,-12.0,36.70703125
2565,-0.806640625,0.15478515625,-0.12060546875,-4.125,107.375,-10.875,36.70703125
2566,-0.806640625,0.15478515625,-0.12060546875,-4.125,107.375,-10.875,36.70703125
2568,-0.806640625,0.15478515625,-0.18310546875,-6.0625,108.625,-10.125,36.70703125
2570,-0.808837890625,0.150390625,-0.128662109375,-6.0625,108.625,-10.125,36.70703125
2572,-0.808837890625,0.150390625,-0.128662109375,-6.0625,108.625,-10.125,36.70703125
2574,-0.81103515625,0.14306640625,-0.13671875,-8.5,109.9375,-9.75,36.70703125
2576,-0.81103515625,0.14306640625,-0.13671875,-8.5,109.9375,-9.75,36.70703125
2578,-0.811279296875,0.134521484375,-0.14404296875,-11.1875,111.1875,-9.375,36.70703125
2580,-0.811279296875,0.134521484375,-0.14404296875,-11.1875,111.1875,-9.375,36.70703125
2582,-0.812255859375,0.133056640625,-0.150390625,-14.5,112.375,-8.5625,36.70703125
2584,-0.812255859375,0.133056640625,-0.150390625,-14.5,112.375,-8.5625,36.70703125
2586,-0.812255859375,0.1376953125,-0.15771484375,-18.0625,113.5625,-7.625,36.70703125
2588,-0.810791015625,0.1376953125,-0.15771484375,-18.0625,113.5625,-7.625,36.70703125
2590,-0.810791015625,0.1376953125,-0.15771484375,-18.0625,113.5625,-7.625,36.70703125
2592,-0.801025390625,0.147705078125,-0.17236328125,-21.0625,114.0,-6.5625,36.70703125
2594,-0.801025390625,0.147705078125,-0.17236328125,-21.0625,114.0,-6.5625,36.70703125
2596,-0.784423828125,0.1572265625,-0.192138671875,-22.5,113.6875,-5.375,36.70703125
2598,-0.784423828125,0.1572265625,-0.192138671875,-22.5,113.6875,-5.375,36.70703125
2600,-0.771484375,0.1640625,-0.21533203125,-21.875,112.875,-4.3125,36.70703125
2602,-0.771484375,0.1640625,-0.21533203125,-21.875,112.875,-4.3125,36.70703125
2604,-0.760009765625,0.17333984375,-0.229736328125,-18.75,111.375,-2.9375,36.70703125
2606,-0.760009765625,0.17333984375,-0.229736328125,-18.75,111.375,-2.9375,36.70703125
2608,-0.760009765625,0.17333984375,-0.229736328125,-18.75,111.375,-2.9375,36.70703125
2610,-0.748779296875,0.186767578125,-0.234619140625,-14.1875,109.25,-1.125,36.70703125
2612,-0.748779296875,0.186767578125,-0.234619140625,-14.1875,109.25,-1.125,36.70703125
2614,-0.747802734375,0.199951171875,-0.233154296875,-8.75,106.9375,0.875,36.70703125
2616,-0.747802734375,0.199951171875,-0.233154296875,-8.75,106.9375,0.875,36.70703125
2617,-0.750732421875,0.21142578125,-0.2353515625,-2.5,104.875,2.375,36.70703125
2619,-0.750732421875,0.21142578125,-0.2353515625,-2.5,104.875,2.375,36.70703125
2621,-0.750732421875,0.21142578125,-0.2353515625,-2.5,104.875,2.375,36.70703125
2623,-0.753173828125,0.221435546875,-0.23388671875,4.0625,104.0,3.5,36.70703125
2626,-0.753173828125,0.221435546875,-0.23388671875,4.0625,104.0,3.5,36.70703125
2628,-0.754638671875,0.2314453125,-0.232421875,10.375,104.625,4.375,36.70703125
2629,-0.754638671875,0.2314453125,-0.232421875,10.375,104.625,4.375,36.70703125
2631,-0.755615234375,0.23974609375,-0.240234375,15.625,105.9375,4.8125,36.70703125
2633,-0.755615234375,0.23974609375,-0.240234375,15.625,105.9375,4.8125,36.70703125
2635,-0.75048828125,0.240478515625,-0.2490234375,19.5625,107.875,4.625,36.70703125
2637,-0.75048828125,0.240478515625,-0.2490234375,19.5625,107.875,4.625,36.70703125
2639,-0.75048828125,0.240478515625,-0.2490234375,19.5625,107.875,4.625,36.70703125
2641,-0.740478515625,0.238037109375,-0.260009765625,22.125,109.875,3.625,36.70703125
2643,-0.740478515625,0.238037109375,-0.260009765625,22.125,109.875,3.625,36.70703125
2645,-0.727783203125,0.23681640625,-0.273193359375,23.25,111.875,2.6875,36.70703125
2647,-0.727783203125,0.23681640625,-0.273193359375,23.25,111.875,2.6875,36.70703125
2649,-0.712890625,0.231201171875,-0.287841796875,23.125,113.875,1.8125,36.70703125
2652,-0.712890625,0.231201171875,-0.287841796875,23.125,113.875,1.8125,36.70703125
2654,-0.699462890625,0.22900390625,-0.303955078125,21.875,115.5625,0.5625,36.70703125
2656,-0.699462890625,0.22900390625,-0.303955078125,21.875,115.5625,0.5625,36.70703125
2658,-0.686767578125,0.231201171875,-0.32080078125,19.8125,117.0,-1.125,36.70703125
2659,-0.686767578125,0.231201171875,-0.32080078125,19.8125,117.0,-1.125,36.70703125
2661,-0.686767578125,0.231201171875,-0.32080078125,17.375,117.875,-3.75,36.70703125
2663,-0.673095703125,0.23583984375,-0.335205078125,17.375,117.875,-3.75,36.70703125
2665,-0.673095703125,0.23583984375,-0.335205078125,17.375,117.875,-3.75,36.70703125
2667,-0.662353515625,0.240234375,-0.345703125,14.8125,118.5625,-6.875,36.70703125
2670,-0.662353515625,0.240234375,-0.345703125,14.8125,118.5625,-6.875,36.70703125
2671,-0.65380859375,0.23974609375,-0.360107421875,12.5,118.8125,-10.3125,36.70703125
2673,-0.65380859375,0.23974609375,-0.360107421875,12.5,118.8125,-10.3125,36.70703125
2675,-0.64404296875,0.230224609375,-0.3779296875,9.8125,118.9375,-13.875,36.69140625
2677,-0.64404296875,0.230224609375,-0.3779296875,9.8125,118.9375,-13.875,36.69140625
2679,-0.63720703125,0.214599609375,-0.3955078125,6.875,118.875,-17.25,36.69140625
2681,-0.63720703125,0.214599609375,-0.3955078125,6.875,118.875,-17.25,36.69140625
2683,-0.63720703125,0.214599609375,-0.3955078125,6.875,118.875,-17.25,36.69140625
2685,-0.63134765625,0.192626953125,-0.412353515625,3.625,119.0625,-20.625,36.69140625
2687,-0.63134765625,0.192626953125,-0.412353515625,3.625,119.0625,-20.625,36.69140625
2689,-0.629638671875,0.1708984375,-0.428466796875,0.0625,119.1875,-23.625,36.69140625
2691,-0.629638671875,0.1708984375,-0.428466796875,0.0625,119.1875,-23.625,36.69140625
2693,-0.627685546875,0.15576171875,-0.44091796875,-3.625,119.5625,-25.8125,36.69140625
2695,-0.627685546875,0.15576171875,-0.44091796875,-3.625,119.5625,-25.8125,36.69140625
2697,-0.622802734375,0.142578125,-0.45703125,-6.8125,119.875,-27.1875,36.69140625
2699,-0.622802734375,0.142578125,-0.45703125,-6.8125,119.875,-27.1875,36.69140625
2701,-0.622802734375,0.142578125,-0.45703125,-6.8125,119.875,-27.1875,36.69140625
2703,-0.617431640625,0.12890625,-0.478515625,-9.3125,120.125,-28.5,36.69140625
2705,-0.617431640625,0.12890625,-0.478515625,-9.3125,120.125,-28.5,36.69140625
2707,-0.60986328125,0.119140625,-0.50146484375,-10.6875,120.125,-29.5625,36.69140625
2709,-0.60986328125,0.119140625,-0.50146484375,-10.6875,120.125,-29.5625,36.69140625
2711,-0.60595703125,0.112548828125,-0.526611328125,-11.0625,119.5,-30.5,36.69140625
2713,-0.60595703125,0.112548828125,-0.526611328125,-11.0625,119.5,-30.5,36.69140625
2715,-0.603515625,0.10693359375,-0.548583984375,-11.0625,118.375,-31.25,36.69140625
2717,-0.603515625,0.10693359375,-0.548583984375,-11.0625,118.375,-31.25,36.69140625
2719,-0.603515625,0.10693359375,-0.548583984375,-11.0625,118.375,-31.8125,36.69140625
2721,-0.60107421875,0.10400390625,-0.5703125,-10.9375,116.625,-31.8125,36.69140625
2723,-0.60107421875,0.10400390625,-0.5703125,-10.9375,116.625,-31.8125,36.69140625
2725,-0.595947265625,0.104736328125,-0.586181640625,-10.9375,113.375,-31.9375,36.69140625
2727,-0.595947265625,0.104736328125,-0.586181640625,-10.9375,113.375,-31.9375,36.69140625
2729,-0.591796875,0.10546875,-0.5986328125,-11.4375,108.8125,-31.875,36.69140625
2730,-0.591796875,0.10546875,-0.5986328125,-11.4375,108.8125,-31.875,36.69140625
2732,-0.591796875,0.1015625,-0.6044921875,-12.4375,103.9375,-32.0625,36.69140625
2735,-0.5966796875,0.1015625,-0.6044921875,-12.4375,103.9375,-32.0625,36.69140625
2737,-0.5966796875,0.1015625,-0.6044921875,-13.625,99.4375,-31.6875,36.69140625
2738,-0.60400390625,0.092529296875,-0.609130859375,-13.625,99.4375,-31.6875,36.69140625
2740,-0.60400390625,0.092529296875,-0.609130859375,-13.625,99.4375,-31.6875,36.69140625
2742,-0.610107421875,0.08056640625,-0.61083984375,-14.875,95.5625,-30.8125,36.69140625
2744,-0.610107421875,0.08056640625,-0.61083984375,-14.875,95.5625,-30.8125,36.69140625
2746,-0.614501953125,0.07666015625,-0.604736328125,-16.0625,91.75,-29.9375,36.69140625
2748,-0.614501953125,0.07666015625,-0.604736328125,-16.0625,91.75,-29.9375,36.69140625
2750,-0.620361328125,0.080322265625,-0.5908203125,-17.75,88.1875,-28.1875,36.69140625
2752,-0.620361328125,0.080322265625,-0.5908203125,-17.75,88.1875,-28.1875,36.69140625
2754,-0.620361328125,0.080322265625,-0.5908203125,-17.75,88.1875,-28.1875,36.69140625
2757,-0.632568359375,0.0830078125,-0.572998046875,-20.1875,85.3125,-26.5,36.69140625
2759,-0.632568359375,0.0830078125,-0.572998046875,-20.1875,85.3125,-26.5,36.69140625
2760,-0.6435546875,0.082275390625,-0.556884765625,-23.0,83.875,-24.8125,36.69140625
2762,-0.6435546875,0.082275390625,-0.556884765625,-23.0,83.875,-24.8125,36.69140625
2764,-0.64453125,0.082275390625,-0.546630859375,-25.8125,83.875,-22.6875,36.69140625
2766,-0.64453125,0.082275390625,-0.546630859375,-25.8125,83.875,-22.6875,36.69140625
2768,-0.637451171875,0.087158203125,-0.53466796875,-28.0,84.1875,-20.3125,36.69140625
2770,-0.637451171875,0.087158203125,-0.53466796875,-28.0,84.1875,-20.3125,36.69140625
2772,-0.637451171875,0.087158203125,-0.53466796875,-28.0,84.1875,-20.3125,36.69140625
2774,-0.628662109375,0.095458984375,-0.52099609375,-29.0,85.5,-18.6875,36.69140625
2776,-0.628662109375,0.095458984375,-0.52099609375,-29.0,85.5,-18.6875,36.69140625
2778,-0.6201171875,0.10302734375,-0.51025390625,-28.625,87.0625,-17.1875,36.69140625
2780,-0.6201171875,0.10302734375,-0.51025390625,-28.625,87.0625,-17.1875,36.69140625
2782,-0.6123046875,0.10888671875,-0.50390625,-26.625,89.8125,-16.0,36.69140625
2784,-0.6123046875,0.10888671875,-0.50390625,-26.625,89.8125,-16.0,36.69140625
2786,-0.60498046875,0.1171875,-0.498046875,-23.3125,93.0625,-15.3125,36.69140625
2787,-0.60498046875,0.1171875,-0.498046875,-23.3125,93.0625,-15.3125,36.69140625
2790,-0.60498046875,0.1171875,-0.498046875,-23.3125,93.0625,-15.3125,36.69140625
2792,-0.59619140625,0.125732421875,-0.491455078125,-19.3125,96.5,-15.25,36.69140625
2793,-0.59619140625,0.125732421875,-0.491455078125,-19.3125,96.5,-15.25,36.69140625
2795,-0.590087890625,0.131103515625,-0.491943359375,-15.1875,100.1875,-15.1875,36.69140625
2797,-0.590087890625,0.131103515625,-0.491943359375,-15.1875,100.1875,-15.1875,36.69140625
2800,-0.582763671875,0.132568359375,-0.50048828125,-10.6875,104.125,-15.0625,36.69140625
2802,-0.582763671875,0.132568359375,-0.50048828125,-10.6875,104.125,-15.0625,36.69140625
2804,-0.574462890625,0.128173828125,-0.5146484375,-5.875,108.3125,-14.6875,36.69140625
2806,-0.574462890625,0.128173828125,-0.5146484375,-5.875,108.3125,-14.6875,36.69140625
2808,-0.574462890625,0.128173828125,-0.530029296875,-1.1875,113.0,-14.0,36.69140625
2810,-0.564208984375,0.11962890625,-0.530029296875,-1.1875,113.0,-14.0,36.69140625
2811,-0.564208984375,0.11962890625,-0.530029296875,-1.1875,113.0,-14.0,36.69140625
2813,-0.550537109375,0.11474609375,-0.55078125,2.875,117.1875,-13.75,36.69140625
2815,-0.550537109375,0.11474609375,-0.55078125,2.875,117.1875,-13.75,36.69140625
2817,-0.54541015625,0.1083984375,-0.5791015625,6.25,120.5,-13.875,36.71875
2819,-0.54541015625,0.1083984375,-0.5791015625,6.25,120.5,-13.875,36.71875
2822,-0.545166015625,0.097412109375,-0.614013671875,8.625,123.25,-13.75,36.71875
2823,-0.545166015625,0.097412109375,-0.614013671875,8.625,123.25,-13.75,36.71875
2825,-0.5390625,0.081787109375,-0.651611328125,10.25,124.875,-13.375,36.71875
2827,-0.5390625,0.081787109375,-0.651611328125,10.25,124.875,-13.375,36.71875
2829,-0.5390625,0.081787109375,-0.651611328125,10.25,124.875,-13.375,36.71875
2831,-0.53515625,0.068115234375,-0.6826171875,11.8125,124.8125,-12.5,36.71875
2833,-0.53515625,0.068115234375,-0.6826171875,11.8125,124.8125,-12.5,36.71875
2835,-0.52734375,0.06396484375,-0.70849609375,12.875,122.9375,-11.3125,36.71875
2837,-0.52734375,0.06396484375,-0.70849609375,12.875,122.9375,-11.3125,36.71875
2839,-0.52197265625,0.062744140625,-0.72900390625,12.25,120.9375,-9.8125,36.71875
2841,-0.52197265625,0.062744140625,-0.72900390625,12.25,120.9375,-9.8125,36.71875
2844,-0.529052734375,0.0634765625,-0.7490234375,10.25,119.375,-9.375,36.71875
2846,-0.529052734375,0.0634765625,-0.7490234375,10.25,119.375,-9.375,36.71875
2847,-0.529052734375,0.0634765625,-0.77197265625,8.5,118.0,-10.125,36.71875
2849,-0.5322265625,0.06396484375,-0.77197265625,8.5,118.0,-10.125,36.71875
2851,-0.5322265625,0.06396484375,-0.77197265625,8.5,118.0,-10.125,36.71875
2853,-0.529296875,0.0546875,-0.80419921875,9.0,115.4375,-10.0,36.71875
2855,-0.529296875,0.0546875,-0.80419921875,9.0,115.4375,-10.0,36.71875
2857,-0.524658203125,0.047119140625,-0.813232421875,10.5,111.75,-8.9375,36.71875
2859,-0.524658203125,0.047119140625,-0.813232421875,10.5,111.75,-8.9375,36.71875
2861,-0.533203125,0.05078125,-0.80615234375,7.375,109.625,-8.0625,36.71875
2863,-0.533203125,0.05078125,-0.80615234375,7.375,109.625,-8.0625,36.71875
2865,-0.533203125,0.05078125,-0.80615234375,7.375,109.625,-8.0625,36.71875
2867,-0.54638671875,0.066650390625,-0.82763671875,4.4375,107.9375,-7.875,36.71875
2869,-0.54638671875,0.066650390625,-0.82763671875,4.4375,107.9375,-7.875,36.71875
2871,-0.55322265625,0.07177734375,-0.854736328125,4.3125,105.875,-7.875,36.71875
2873,-0.55322265625,0.07177734375,-0.854736328125,4.3125,105.875,-7.875,36.71875
2875,-0.551025390625,0.076171875,-0.867431640625,4.5625,104.25,-8.0625,36.71875
2877,-0.551025390625,0.076171875,-0.867431640625,4.5625,104.25,-8.0625,36.71875
2879,-0.55078125,0.0791015625,-0.87451171875,4.5,103.0625,-8.0,36.71875
2881,-0.55078125,0.0791015625,-0.87451171875,4.5,103.0625,-8.0,36.71875
2882,-0.55078125,0.0791015625,-0.87451171875,4.5,103.0625,-8.0,36.71875
2884,-0.55126953125,0.08154296875,-0.876953125,3.875,102.0,-8.125,36.71875
2886,-0.55126953125,0.08154296875,-0.876953125,3.875,102.0,-8.125,36.71875
2888,-0.552978515625,0.08203125,-0.879150390625,2.1875,101.25,-8.3125,36.71875
2891,-0.552978515625,0.08203125,-0.879150390625,2.1875,101.25,-8.3125,36.71875
2893,-0.556884765625,0.082763671875,-0.882568359375,-0.25,100.8125,-8.4375,36.71875
2895,-0.556884765625,0.082763671875,-0.882568359375,-0.25,100.8125,-8.4375,36.71875
2897,-0.559814453125,0.0849609375,-0.885009765625,-3.125,100.625,-8.125,36.71875
2899,-0.559814453125,0.0849609375,-0.885009765625,-3.125,100.625,-8.125,36.71875
2901,-0.559814453125,0.0849609375,-0.885009765625,-6.375,100.125,-7.375,36.71875
2902,-0.553955078125,0.08837890625,-0.888671875,-6.375,100.125,-7.375,36.71875
2904,-0.553955078125,0.08837890625,-0.888671875,-6.375,100.125,-7.375,36.71875
2906,-0.5390625,0.09375,-0.8955078125,-9.4375,99.1875,-6.9375,36.71875
2908,-0.5390625,0.09375,-0.8955078125,-9.4375,99.1875,-6.9375,36.71875
2910,-0.531494140625,0.0966796875,-0.916259765625,-11.0,98.375,-6.3125,36.71875
2912,-0.531494140625,0.0966796875,-0.916259765625,-11.0,98.375,-6.3125,36.71875
2914,-0.52001953125,0.1015625,-0.93212890625,-10.375,97.1875,-5.5,36.71875
2916,-0.52001953125,0.1015625,-0.93212890625,-10.375,97.1875,-5.5,36.71875
2918,-0.52001953125,0.1015625,-0.93212890625,-10.375,97.1875,-4.5625,36.71875
2920,-0.52099609375,0.1005859375,-0.897216796875,-14.25,98.0,-4.5625,36.71875
2922,-0.52099609375,0.1005859375,-0.897216796875,-14.25,98.0,-4.5625,36.71875
2924,-0.53173828125,0.107421875,-0.904296875,-18.375,99.25,-4.0,36.71875
2926,-0.53173828125,0.107421875,-0.904296875,-18.375,99.25,-4.0,36.71875
2928,-0.520263671875,0.112060546875,-0.931396484375,-18.0625,99.9375,-3.0625,36.71875
2930,-0.520263671875,0.112060546875,-0.931396484375,-18.0625,99.9375,-3.0625,36.71875
2932,-0.520263671875,0.112060546875,-0.931396484375,-16.25,101.0625,-1.8125,36.71875
2933,-0.49755859375,0.11962890625,-0.941650390625,-16.25,101.0625,-1.8125,36.71875
2935,-0.49755859375,0.11962890625,-0.941650390625,-16.25,101.0625,-1.8125,36.71875
2938,-0.49072265625,0.13818359375,-0.946533203125,-14.1875,102.3125,-0.875,36.71875
2940,-0.49072265625,0.13818359375,-0.946533203125,-14.1875,102.3125,-0.875,36.71875
2942,-0.491943359375,0.164306640625,-0.9560546875,-12.3125,103.6875,-0.5625,36.71875
2944,-0.491943359375,0.164306640625,-0.9560546875,-12.3125,103.6875,-0.5625,36.71875
2945,-0.492919921875,0.191650390625,-0.96826171875,-10.9375,105.125,-0.5625,36.71875
2947,-0.492919921875,0.191650390625,-0.96826171875,-10.9375,105.125,-0.5625,36.71875
2949,-0.489990234375,0.212646484375,-0.98681640625,-9.75,106.5625,-1.0625,36.71875
2951,-0.489990234375,0.212646484375,-0.98681640625,-9.75,106.5625,-1.0625,36.71875
2953,-0.489990234375,0.212646484375,-0.98681640625,-9.75,106.5625,-1.0625,36.71875
2955,-0.486083984375,0.227783203125,-1.00927734375,-7.1875,108.0,-2.1875,36.71875
2957,-0.486083984375,0.227783203125,-1.00927734375,-7.1875,108.0,-2.1875,36.71875
2959,-0.484619140625,0.23779296875,-1.03662109375,-3.75,109.3125,-4.0,36.7109375
2961,-0.484619140625,0.23779296875,-1.03662109375,-3.75,109.3125,-4.0,36.7109375
2963,-0.4833984375,0.243896484375,-1.0654296875,-0.3125,110.5,-6.5,36.7109375
2965,-0.4833984375,0.243896484375,-1.0654296875,-0.3125,110.5,-6.5,36.7109375
2967,-0.4833984375,0.243896484375,-1.09716796875,3.125,111.25,-8.875,36.7109375
2969,-0.476806640625,0.24560546875,-1.09716796875,3.125,111.25,-8.875,36.7109375
2971,-0.476806640625,0.24560546875,-1.09716796875,3.125,111.25,-8.875,36.7109375
2973,-0.469482421875,0.240966796875,-1.127197265625,6.5,111.5,-11.1875,36.7109375
2975,-0.469482421875,0.240966796875,-1.127197265625,6.5,111.5,-11.1875,36.7109375
2977,-0.461669921875,0.230224609375,-1.160400390625,9.625,111.5,-13.625,36.7109375
2979,-0.461669921875,0.230224609375,-1.160400390625,9.625,111.5,-13.625,36.7109375
2981,-0.45263671875,0.2138671875,-1.193603515625,12.8125,110.9375,-15.9375,36.7109375
2983,-0.45263671875,0.2138671875,-1.193603515625,12.8125,110.9375,-15.9375,36.7109375
