time,acc_x,acc_y,acc_z,gyro_x,gyro_y,gyro_z,temp
1,0.0,0.0,0.0,0.0,0.0,0.0,0.0
2,0.0,0.0,0.0,0.0,0.0,0.0,0.0
4,0.0,0.0,0.0,0.0,0.0,0.0,0.0
6,0.0,0.0,0.0,0.0,0.0,0.0,0.0
8,0.0,0.0,0.0,0.0,0.0,0.0,0.0
10,0.0,0.0,0.0,0.0,0.0,0.0,0.0
11,0.0,0.0,0.0,0.0,0.0,0.0,0.0
13,0.0,0.0,0.0,0.0,0.0,0.0,0.0
15,0.0,0.0,0.0,0.0,0.0,0.0,0.0
17,0.0,0.0,0.0,0.0,0.0,0.0,0.0
19,0.0,0.0,0.0,0.0,0.0,0.0,0.0
21,0.0,0.0,0.0,0.0,0.0,0.0,0.0
22,0.0,0.0,0.0,0.0,0.0,0.0,0.0
24,0.0,0.0,0.0,0.0,0.0,0.0,0.0
26,0.0,0.0,0.0,0.0,0.0,0.0,0.0
28,0.0,0.0,0.0,0.0,0.0,0.0,0.0
29,0.0,0.0,0.0,0.0,0.0,0.0,0.0
31,0.0,0.0,0.0,0.0,0.0,0.0,0.0
33,0.0,0.0,0.0,0.0,0.0,0.0,0.0
35,0.0,0.0,0.0,0.0,0.0,0.0,0.0
37,0.0,0.0,0.0,0.0,0.0,0.0,0.0
39,0.0,0.0,0.0,0.0,0.0,0.0,0.0
41,0.0,0.0,0.0,0.0,0.0,0.0,0.0
42,0.0,0.0,0.0,0.0,0.0,0.0,0.0
44,0.0,0.0,0.0,0.0,0.0,0.0,0.0
46,0.0,0.0,0.0,0.0,0.0,0.0,0.0
48,0.0,0.0,0.0,0.0,0.0,0.0,0.0
50,0.0,0.0,0.0,0.0,0.0,0.0,0.0
51,0.0,0.0,0.0,0.0,0.0,0.0,0.0
53,0.0,0.0,0.0,0.0,0.0,0.0,0.0
55,0.0,0.0,0.0,0.0,0.0,0.0,0.0
57,0.0,0.0,0.0,0.0,0.0,0.0,0.0
59,0.0,0.0,0.0,0.0,0.0,0.0,0.0
60,0.0,0.0,0.0,0.0,0.0,0.0,0.0
62,0.0,0.0,0.0,0.0,0.0,0.0,0.0
64,0.0,0.0,0.0,0.0,0.0,0.0,0.0
66,0.0,0.0,0.0,0.0,0.0,0.0,0.0
68,0.0,0.0,0.0,0.0,0.0,0.0,0.0
70,0.0,0.0,0.0,0.0,0.0,0.0,0.0
72,0.0,0.0,0.0,0.0,0.0,0.0,0.0
74,0.0,0.0,0.0,0.0,0.0,0.0,0.0
76,0.0,0.0,0.0,0.0,0.0,0.0,0.0
77,0.0,0.0,0.0,0.0,0.0,0.0,0.0
79,0.0,0.0,0.0,0.0,0.0,0.0,0.0
81,0.0,0.0,0.0,0.0,0.0,0.0,0.0
83,0.0,0.0,0.0,0.0,0.0,0.0,0.0
85,0.0,0.0,0.0,0.0,0.0,0.0,0.0
86,0.0,0.0,0.0,0.0,0.0,0.0,0.0
88,0.0,0.0,0.0,0.0,0.0,0.0,0.0
90,0.0,0.0,0.0,0.0,0.0,0.0,0.0
92,0.0,0.0,0.0,0.0,0.0,0.0,0.0
93,0.0,0.0,0.0,0.0,0.0,0.0,0.0
95,0.233154296875,2.265625,-3.243896484375,445.0625,262.9375,444.9375,33.92578125
98,0.233154296875,2.265625,-3.243896484375,445.0625,262.9375,444.9375,33.92578125
100,7.999755859375,7.999755859375,7.999755859375,-2048.0,69.1875,-2048.0,33.92578125
102,7.999755859375,7.999755859375,7.999755859375,-2048.0,69.1875,-2048.0,33.92578125
103,7.999755859375,7.999755859375,7.999755859375,-2048.0,69.1875,-2048.0,33.92578125
105,-8.0,7.999755859375,7.999755859375,-522.3125,-2048.0,-2048.0,33.92578125
107,-8.0,7.999755859375,7.999755859375,-522.3125,-2048.0,-2048.0,33.92578125
109,-0.59326171875,0.07373046875,0.854736328125,20.0,-5.25,-6.375,33.92578125
111,-0.59326171875,0.07373046875,0.854736328125,20.0,-5.25,-6.375,33.92578125
113,-0.600830078125,0.072021484375,0.843994140625,19.0,-4.1875,-7.1875,33.92578125
115,-0.600830078125,0.072021484375,0.843994140625,19.0,-4.1875,-7.1875,33.92578125
117,-0.600830078125,0.072021484375,0.843994140625,19.0,-4.1875,-7.1875,33.92578125
119,-0.609130859375,0.06884765625,0.833740234375,17.25,-3.0625,-8.0625,33.92578125
121,-0.609130859375,0.06884765625,0.833740234375,17.25,-3.0625,-8.0625,33.92578125
123,-0.616455078125,0.060791015625,0.822509765625,14.3125,-1.875,-9.25,33.984375
125,-0.616455078125,0.060791015625,0.822509765625,14.3125,-1.875,-9.25,33.984375
127,-0.618896484375,0.055419921875,0.81591796875,12.4375,-0.6875,-10.625,33.984375
129,-0.618896484375,0.055419921875,0.81591796875,12.4375,-0.6875,-10.625,33.984375
131,-0.615234375,0.05615234375,0.814453125,11.375,0.875,-12.375,33.984375
133,-0.615234375,0.05615234375,0.814453125,11.375,0.875,-12.375,33.984375
135,-0.615234375,0.05615234375,0.814453125,11.375,0.875,-12.375,33.984375
137,-0.607177734375,0.06005859375,0.817626953125,10.25,2.5625,-14.25,33.984375
138,-0.607177734375,0.06005859375,0.817626953125,10.25,2.5625,-14.25,33.984375
141,-0.599365234375,0.068359375,0.8203125,9.1875,4.625,-15.875,33.984375
143,-0.599365234375,0.068359375,0.8203125,9.1875,4.625,-15.875,33.984375
145,-0.5927734375,0.072998046875,0.82080078125,8.25,6.625,-17.6875,33.984375
147,-0.5927734375,0.072998046875,0.82080078125,8.25,6.625,-17.6875,33.984375
149,-0.593017578125,0.076904296875,0.820556640625,7.875,8.4375,-19.0,33.984375
151,-0.593017578125,0.076904296875,0.820556640625,7.875,8.4375,-19.0,33.984375
153,-0.593505859375,0.0830078125,0.820068359375,8.0625,9.875,-20.0,33.984375
155,-0.593505859375,0.0830078125,0.820068359375,8.0625,9.875,-20.0,33.984375
157,-0.593505859375,0.08544921875,0.81982421875,8.375,11.25,-20.5,33.984375
159,-0.59619140625,0.08544921875,0.81982421875,8.375,11.25,-20.5,33.984375
161,-0.59619140625,0.08544921875,0.81982421875,8.375,11.25,-20.5,33.984375
163,-0.6005859375,0.084716796875,0.8203125,9.25,12.8125,-20.75,33.984375
165,-0.6005859375,0.084716796875,0.8203125,9.25,12.8125,-20.75,33.984375
167,-0.607666015625,0.080322265625,0.8251953125,10.375,14.8125,-20.9375,33.984375
169,-0.607666015625,0.080322265625,0.8251953125,10.375,14.8125,-20.9375,33.984375
171,-0.6162109375,0.078125,0.83154296875,11.6875,16.875,-21.0625,33.984375
173,-0.6162109375,0.078125,0.83154296875,11.6875,16.875,-21.0625,33.984375
175,-0.6240234375,0.076904296875,0.84130859375,13.375,18.75,-21.0625,33.984375
177,-0.6240234375,0.076904296875,0.84130859375,13.375,18.75,-21.0625,33.984375
179,-0.6240234375,0.076904296875,0.84130859375,13.375,18.75,-21.0625,33.984375
181,-0.628662109375,0.076416015625,0.8544921875,15.125,20.3125,-21.0,33.984375
183,-0.628662109375,0.076416015625,0.8544921875,15.125,20.3125,-21.0,33.984375
185,-0.629638671875,0.0751953125,0.86376953125,16.9375,21.375,-20.75,33.984375
187,-0.629638671875,0.0751953125,0.86376953125,16.9375,21.375,-20.75,33.984375
189,-0.62890625,0.076416015625,0.8720703125,18.125,21.9375,-20.875,33.984375
191,-0.62890625,0.076416015625,0.8720703125,18.125,21.9375,-20.875,33.984375
193,-0.625,0.07861328125,0.87353515625,18.8125,22.125,-20.6875,33.984375
195,-0.625,0.07861328125,0.87353515625,18.8125,22.125,-20.6875,33.984375
197,-0.625,0.07861328125,0.87353515625,18.8125,22.125,-20.6875,33.984375
199,-0.620361328125,0.07666015625,0.876220703125,18.875,22.0625,-21.1875,33.984375
201,-0.620361328125,0.07666015625,0.876220703125,18.875,22.0625,-21.1875,33.984375
202,-0.616455078125,0.075927734375,0.879150390625,17.875,22.375,-21.8125,33.984375
204,-0.616455078125,0.075927734375,0.879150390625,17.875,22.375,-21.8125,33.984375
206,-0.61181640625,0.074462890625,0.883056640625,16.125,23.0625,-22.9375,33.984375
208,-0.61181640625,0.074462890625,0.883056640625,16.125,23.0625,-22.9375,33.984375
210,-0.61669921875,0.08154296875,0.88916015625,14.875,22.875,-23.5,33.984375
212,-0.61669921875,0.08154296875,0.88916015625,14.875,22.875,-23.5,33.984375
215,-0.621337890625,0.092041015625,0.898193359375,14.1875,21.625,-23.1875,33.984375
217,-0.621337890625,0.092041015625,0.898193359375,14.1875,21.625,-23.1875,33.984375
219,-0.621337890625,0.092041015625,0.898193359375,14.1875,21.625,-23.1875,33.984375
221,-0.612548828125,0.10107421875,0.90625,13.75,20.3125,-23.3125,33.984375
223,-0.612548828125,0.10107421875,0.90625,13.75,20.3125,-23.3125,33.984375
224,-0.60107421875,0.10888671875,0.906494140625,12.9375,20.0625,-23.8125,33.984375
226,-0.60107421875,0.10888671875,0.906494140625,12.9375,20.0625,-23.8125,33.984375
228,-0.595947265625,0.115966796875,0.900146484375,11.5625,20.3125,-23.75,33.984375
230,-0.595947265625,0.115966796875,0.900146484375,11.5625,20.3125,-23.75,33.984375
232,-0.595947265625,0.115966796875,0.89111328125,10.0,20.25,-22.9375,33.984375
234,-0.5966796875,0.121337890625,0.89111328125,10.0,20.25,-22.9375,33.984375
237,-0.5966796875,0.121337890625,0.89111328125,10.0,20.25,-22.9375,33.984375
238,-0.59716796875,0.1240234375,0.8818359375,9.4375,19.6875,-21.5,33.984375
240,-0.59716796875,0.1240234375,0.8818359375,9.4375,19.6875,-21.5,33.984375
242,-0.593994140625,0.124755859375,0.879150390625,9.5,18.9375,-19.875,33.984375
244,-0.593994140625,0.124755859375,0.879150390625,9.5,18.9375,-19.875,33.984375
246,-0.58984375,0.12158203125,0.87451171875,10.25,18.25,-18.5625,33.984375
248,-0.58984375,0.12158203125,0.87451171875,10.25,18.25,-18.5625,33.984375
250,-0.58984375,0.12158203125,0.867919921875,10.9375,17.75,-17.625,33.984375
252,-0.593017578125,0.1181640625,0.867919921875,10.9375,17.75,-17.625,33.984375
254,-0.593017578125,0.1181640625,0.867919921875,10.9375,17.75,-17.625,33.984375
256,-0.59814453125,0.114013671875,0.86669921875,11.625,17.5625,-16.8125,33.984375
258,-0.59814453125,0.114013671875,0.86669921875,11.625,17.5625,-16.8125,33.984375
261,-0.60986328125,0.111328125,0.870361328125,12.4375,18.0625,-16.4375,33.984375
263,-0.60986328125,0.111328125,0.870361328125,12.4375,18.0625,-16.4375,33.984375
265,-0.627197265625,0.106201171875,0.8759765625,14.0,19.25,-16.25,34.00390625
267,-0.627197265625,0.106201171875,0.8759765625,14.0,19.25,-16.25,34.00390625
269,-0.641357421875,0.098388671875,0.88671875,16.3125,20.25,-16.5,34.00390625
271,-0.641357421875,0.098388671875,0.88671875,16.3125,20.25,-16.5,34.00390625
273,-0.654052734375,0.0908203125,0.900634765625,18.3125,20.8125,-16.8125,34.00390625
275,-0.654052734375,0.0908203125,0.900634765625,18.3125,20.8125,-16.8125,34.00390625
277,-0.66796875,0.088134765625,0.913818359375,20.0625,21.25,-16.8125,34.00390625
279,-0.66796875,0.088134765625,0.913818359375,20.0625,21.25,-16.8125,34.00390625
281,-0.66796875,0.088134765625,0.913818359375,20.0625,21.25,-16.8125,34.00390625
283,-0.6796875,0.090576171875,0.92626953125,21.6875,21.1875,-16.375,34.00390625
285,-0.6796875,0.090576171875,0.92626953125,21.6875,21.1875,-16.375,34.00390625
287,-0.68701171875,0.098388671875,0.934326171875,23.125,20.625,-15.6875,34.00390625
289,-0.68701171875,0.098388671875,0.934326171875,23.125,20.625,-15.6875,34.00390625
291,-0.68798828125,0.10302734375,0.938232421875,24.25,19.6875,-14.4375,34.00390625
293,-0.68798828125,0.10302734375,0.938232421875,24.25,19.6875,-14.4375,34.00390625
295,-0.682373046875,0.10205078125,0.93896484375,25.0625,18.875,-12.625,34.00390625
297,-0.682373046875,0.10205078125,0.93896484375,25.0625,18.875,-12.625,34.00390625
299,-0.682373046875,0.10009765625,0.938720703125,25.8125,18.25,-10.875,34.00390625
301,-0.675048828125,0.10009765625,0.938720703125,25.8125,18.25,-10.875,34.00390625
303,-0.675048828125,0.10009765625,0.938720703125,25.8125,18.25,-10.875,34.00390625
305,-0.671142578125,0.096435546875,0.93310546875,25.875,17.9375,-9.0,34.00390625
307,-0.671142578125,0.096435546875,0.93310546875,25.875,17.9375,-9.0,34.00390625
309,-0.67041015625,0.093505859375,0.927001953125,25.1875,17.6875,-7.375,34.00390625
311,-0.67041015625,0.093505859375,0.927001953125,25.1875,17.6875,-7.375,34.00390625
313,-0.671875,0.092041015625,0.923583984375,23.6875,17.375,-6.6875,34.00390625
315,-0.671875,0.092041015625,0.923583984375,23.6875,17.375,-6.6875,34.00390625
317,-0.674072265625,0.08837890625,0.924560546875,21.75,17.4375,-6.3125,34.00390625
319,-0.674072265625,0.08837890625,0.924560546875,21.75,17.4375,-6.3125,34.00390625
321,-0.674072265625,0.08837890625,0.924560546875,21.75,17.4375,-6.3125,34.00390625
323,-0.67724609375,0.083251953125,0.924560546875,20.125,17.4375,-6.0625,34.00390625
324,-0.67724609375,0.083251953125,0.924560546875,20.125,17.4375,-6.0625,34.00390625
327,-0.677978515625,0.073974609375,0.919189453125,19.5625,17.125,-5.8125,34.00390625
329,-0.677978515625,0.073974609375,0.919189453125,19.5625,17.125,-5.8125,34.00390625
331,-0.675537109375,0.0693359375,0.90966796875,19.5625,16.1875,-5.5,34.00390625
333,-0.675537109375,0.0693359375,0.90966796875,19.5625,16.1875,-5.5,34.00390625
335,-0.672119140625,0.0703125,0.90283203125,19.5625,15.3125,-5.1875,34.00390625
337,-0.672119140625,0.0703125,0.90283203125,19.5625,15.3125,-5.1875,34.00390625
338,-0.672119140625,0.0703125,0.90283203125,19.5625,15.3125,-4.9375,34.00390625
340,-0.66552734375,0.0712890625,0.896484375,19.125,14.875,-4.9375,34.00390625
342,-0.66552734375,0.0712890625,0.896484375,19.125,14.875,-4.9375,34.00390625
344,-0.662353515625,0.072509765625,0.888427734375,18.5,14.625,-4.5625,34.00390625
346,-0.662353515625,0.072509765625,0.888427734375,18.5,14.625,-4.5625,34.00390625
349,-0.6630859375,0.07177734375,0.87939453125,17.5625,14.5,-3.6875,34.00390625
351,-0.6630859375,0.07177734375,0.87939453125,17.5625,14.5,-3.6875,34.00390625
353,-0.673828125,0.068359375,0.86962890625,16.625,14.4375,-3.125,34.00390625
354,-0.673828125,0.068359375,0.86962890625,16.625,14.4375,-3.125,34.00390625
357,-0.686767578125,0.0654296875,0.86279296875,15.9375,14.4375,-2.375,34.00390625
358,-0.686767578125,0.0654296875,0.86279296875,15.9375,14.4375,-2.375,34.00390625
360,-0.686767578125,0.0654296875,0.86279296875,15.9375,14.4375,-2.375,34.00390625
362,-0.6953125,0.06103515625,0.859375,15.875,13.625,-1.625,34.00390625
364,-0.6953125,0.06103515625,0.859375,15.875,13.625,-1.625,34.00390625
366,-0.701904296875,0.05224609375,0.84814453125,16.375,13.0,-1.125,34.00390625
368,-0.701904296875,0.05224609375,0.84814453125,16.375,13.0,-1.125,34.00390625
370,-0.712158203125,0.0419921875,0.834228515625,16.6875,12.4375,-0.9375,34.00390625
373,-0.712158203125,0.0419921875,0.834228515625,16.6875,12.4375,-0.9375,34.00390625
374,-0.7255859375,0.032470703125,0.82177734375,16.5625,11.625,-0.8125,34.00390625
376,-0.7255859375,0.032470703125,0.82177734375,16.5625,11.625,-0.8125,34.00390625
378,-0.7255859375,0.032470703125,0.82177734375,0.5625,10.75,-1.125,34.00390625
380,-0.729248046875,0.030517578125,0.80810546875,15.875,10.75,-1.125,34.00390625
382,-0.729248046875,0.030517578125,0.80810546875,15.875,10.75,-1.125,34.00390625
384,-0.73291015625,0.037353515625,0.796630859375,14.6875,9.5625,-1.75,34.00390625
386,-0.73291015625,0.037353515625,0.796630859375,14.6875,9.5625,-1.75,34.00390625
388,-0.749755859375,0.044921875,0.785400390625,12.875,8.625,-2.0625,34.00390625
390,-0.749755859375,0.044921875,0.785400390625,12.875,8.625,-2.0625,34.00390625
392,-0.749755859375,0.044921875,0.785400390625,10.1875,8.0,-2.1875,34.00390625
394,-0.76025390625,0.054931640625,0.77001953125,10.1875,8.0,-2.1875,34.00390625
396,-0.76025390625,0.054931640625,0.77001953125,6.9375,7.0,-2.1875,34.00390625
398,-0.758056640625,0.065185546875,0.75537109375,6.9375,7.0,-2.1875,34.00390625
400,-0.758056640625,0.065185546875,0.75537109375,6.9375,7.0,-2.1875,34.00390625
402,-0.751953125,0.068359375,0.74462890625,3.625,6.0,-2.25,34.00390625
404,-0.751953125,0.068359375,0.74462890625,3.625,6.0,-2.25,34.00390625
406,-0.742431640625,0.068115234375,0.736572265625,1.0,5.375,-1.8125,34.015625
407,-0.742431640625,0.068115234375,0.736572265625,1.0,5.375,-1.8125,34.015625
409,-0.742431640625,0.068115234375,0.736572265625,-0.3125,5.1875,-0.9375,34.015625
411,-0.735107421875,0.068603515625,0.72802734375,-0.3125,5.1875,-0.9375,34.015625
413,-0.735107421875,0.068603515625,0.72802734375,-0.3125,5.1875,-0.9375,34.015625
415,-0.72802734375,0.06787109375,0.716796875,0.4375,4.5,0.0625,34.015625
418,-0.72802734375,0.06787109375,0.716796875,0.4375,4.5,0.0625,34.015625
420,-0.72119140625,0.06591796875,0.70849609375,2.5,3.4375,1.625,34.015625
422,-0.72119140625,0.06591796875,0.70849609375,2.5,3.4375,1.625,34.015625
424,-0.7158203125,0.066650390625,0.69921875,5.0625,2.0625,3.5,34.015625
425,-0.7158203125,0.066650390625,0.69921875,5.0625,2.0625,3.5,34.015625
427,-0.7158203125,0.071044921875,0.688232421875,7.125,0.5,5.8125,34.015625
429,-0.710693359375,0.071044921875,0.688232421875,7.125,0.5,5.8125,34.015625
431,-0.710693359375,0.071044921875,0.688232421875,7.125,0.5,5.8125,34.015625
433,-0.701904296875,0.0771484375,0.676025390625,8.25,-1.1875,8.0,34.015625
435,-0.701904296875,0.0771484375,0.676025390625,8.25,-1.1875,8.0,34.015625
437,-0.693115234375,0.083251953125,0.66162109375,8.5,-2.75,9.9375,34.015625
439,-0.693115234375,0.083251953125,0.66162109375,8.5,-2.75,9.9375,34.015625
441,-0.688720703125,0.084228515625,0.646240234375,7.625,-4.5,12.625,34.015625
443,-0.688720703125,0.084228515625,0.646240234375,7.625,-4.5,12.625,34.015625
445,-0.685546875,0.080078125,0.638427734375,6.3125,-5.8125,15.5,34.015625
447,-0.685546875,0.080078125,0.638427734375,6.3125,-5.8125,15.5,34.015625
449,-0.685546875,0.080078125,0.638427734375,6.3125,-5.8125,15.5,34.015625
451,-0.681640625,0.072509765625,0.626220703125,4.5625,-6.25,17.5,34.015625
453,-0.681640625,0.072509765625,0.626220703125,4.5625,-6.25,17.5,34.015625
455,-0.680908203125,0.064208984375,0.604736328125,2.25,-5.9375,19.0,34.015625
457,-0.680908203125,0.064208984375,0.604736328125,2.25,-5.9375,19.0,34.015625
459,-0.683349609375,0.053955078125,0.5849609375,-0.8125,-5.375,20.6875,34.015625
461,-0.683349609375,0.053955078125,0.5849609375,-0.8125,-5.375,20.6875,34.015625
463,-0.683349609375,0.053955078125,0.5849609375,-4.5,-4.4375,22.0,34.015625
466,-0.6904296875,0.0400390625,0.566650390625,-4.5,-4.4375,22.0,34.015625
467,-0.697509765625,0.023681640625,0.548828125,-7.9375,-3.1875,23.25,34.015625
469,-0.697509765625,0.023681640625,0.548828125,-7.9375,-3.1875,23.25,34.015625
471,-0.697509765625,0.023681640625,0.548828125,-7.9375,-3.1875,23.25,34.015625
473,-0.699462890625,0.006103515625,0.536376953125,-11.0,-2.5,23.875,34.015625
475,-0.699462890625,0.006103515625,0.536376953125,-11.0,-2.5,23.875,34.015625
477,-0.698486328125,-0.009765625,0.53173828125,-13.3125,-1.5,23.9375,34.015625
479,-0.698486328125,-0.009765625,0.53173828125,-13.3125,-1.5,23.9375,34.015625
481,-0.69189453125,-0.020751953125,0.52587890625,-14.3125,0.125,23.25,34.015625
483,-0.69189453125,-0.020751953125,0.52587890625,-14.3125,0.125,23.25,34.015625
485,-0.69189453125,-0.020751953125,0.5234375,-14.0,1.75,21.9375,34.015625
487,-0.693359375,-0.031494140625,0.5234375,-14.0,1.75,21.9375,34.015625
489,-0.693359375,-0.031494140625,0.5234375,-12.9375,3.0625,20.625,34.015625
491,-0.704833984375,-0.041015625,0.52587890625,-12.9375,3.0625,20.625,34.015625
493,-0.704833984375,-0.041015625,0.52587890625,-12.9375,3.0625,20.625,34.015625
495,-0.70849609375,-0.04248046875,0.529296875,-10.4375,4.0,19.4375,34.015625
497,-0.70849609375,-0.04248046875,0.529296875,-10.4375,4.0,19.4375,34.015625
499,-0.702392578125,-0.045166015625,0.532958984375,-6.5625,4.8125,18.125,34.015625
501,-0.702392578125,-0.045166015625,0.532958984375,-6.5625,4.8125,18.125,34.015625
503,-0.688720703125,-0.0419921875,0.541748046875,-2.0,5.1875,16.8125,34.015625
505,-0.688720703125,-0.0419921875,0.541748046875,-2.0,5.1875,16.8125,34.015625
506,-0.688720703125,-0.0419921875,0.541748046875,-2.0,5.1875,16.8125,34.015625
508,-0.68359375,-0.0322265625,0.55322265625,3.125,5.0625,16.0,34.015625
510,-0.68359375,-0.0322265625,0.55322265625,3.125,5.0625,16.0,34.015625
513,-0.679443359375,-0.016357421875,0.5625,7.6875,4.1875,15.75,34.015625
515,-0.679443359375,-0.016357421875,0.5625,7.6875,4.1875,15.75,34.015625
517,-0.657470703125,-0.00390625,0.58203125,10.0,4.25,16.375,34.015625
518,-0.657470703125,-0.00390625,0.58203125,10.0,4.25,16.375,34.015625
520,-0.635986328125,0.0068359375,0.598876953125,9.875,5.25,17.0,34.015625
522,-0.635986328125,0.0068359375,0.598876953125,9.875,5.25,17.0,34.015625
524,-0.635986328125,0.0068359375,0.598876953125,9.875,5.25,17.0,34.015625
526,-0.6220703125,0.016845703125,0.609619140625,8.8125,6.4375,17.5,34.015625
528,-0.6220703125,0.016845703125,0.609619140625,8.8125,6.4375,17.5,34.015625
530,-0.611083984375,0.024658203125,0.619384765625,7.4375,7.25,18.1875,34.015625
532,-0.611083984375,0.024658203125,0.619384765625,7.4375,7.25,18.1875,34.015625
534,-0.60009765625,0.03125,0.6279296875,5.6875,7.875,19.0,34.015625
536,-0.60009765625,0.03125,0.6279296875,5.6875,7.875,19.0,34.015625
538,-0.5830078125,0.03759765625,0.63525390625,4.1875,8.5,19.75,34.015625
540,-0.5830078125,0.03759765625,0.63525390625,4.1875,8.5,19.75,34.015625
542,-0.5830078125,0.03759765625,0.63525390625,4.1875,8.5,19.75,34.015625
544,-0.562255859375,0.044189453125,0.6396484375,2.4375,9.625,20.25,34.015625
546,-0.562255859375,0.044189453125,0.6396484375,2.4375,9.625,20.25,34.015625
548,-0.538330078125,0.048583984375,0.64013671875,0.5625,10.625,20.625,34.03125
550,-0.538330078125,0.048583984375,0.64013671875,0.5625,10.625,20.625,34.03125
552,-0.529541015625,0.050537109375,0.641357421875,-1.3125,12.3125,21.125,34.03125
554,-0.529541015625,0.050537109375,0.641357421875,-1.3125,12.3125,21.125,34.03125
556,-0.5234375,0.051025390625,0.638671875,-3.5,13.9375,21.875,34.03125
558,-0.5234375,0.051025390625,0.638671875,-3.5,13.9375,21.875,34.03125
560,-0.510498046875,0.04931640625,0.639404296875,-6.0,15.4375,22.3125,34.03125
562,-0.510498046875,0.04931640625,0.639404296875,-6.0,15.4375,22.3125,34.03125
564,-0.510498046875,0.04931640625,0.639404296875,-6.0,15.4375,22.3125,34.03125
566,-0.496337890625,0.0498046875,0.644775390625,-9.375,17.125,22.6875,34.03125
568,-0.496337890625,0.0498046875,0.644775390625,-9.375,17.125,22.6875,34.03125
570,-0.48046875,0.05615234375,0.653564453125,-13.125,19.0,22.8125,34.03125
572,-0.48046875,0.05615234375,0.653564453125,-13.125,19.0,22.8125,34.03125
574,-0.458984375,0.06201171875,0.660888671875,-16.75,21.375,22.25,34.03125
575,-0.458984375,0.06201171875,0.660888671875,-16.75,21.375,22.25,34.03125
577,-0.458984375,0.06201171875,0.660888671875,-16.75,21.375,22.25,34.03125
579,-0.43798828125,0.062744140625,0.669189453125,-20.25,23.9375,21.625,34.03125
581,-0.43798828125,0.062744140625,0.669189453125,-20.25,23.9375,21.625,34.03125
584,-0.419189453125,0.062744140625,0.681396484375,-23.5,26.375,20.9375,34.03125
586,-0.419189453125,0.062744140625,0.681396484375,-23.5,26.375,20.9375,34.03125
588,-0.405517578125,0.05517578125,0.689208984375,-25.5625,29.0625,20.25,34.03125
590,-0.405517578125,0.05517578125,0.689208984375,-25.5625,29.0625,20.25,34.03125
591,-0.395263671875,0.04736328125,0.69677734375,-25.25,31.1875,19.75,34.03125
593,-0.395263671875,0.04736328125,0.69677734375,-25.25,31.1875,19.75,34.03125
595,-0.395263671875,0.04736328125,0.69677734375,-25.25,32.9375,18.9375,34.03125
597,-0.388671875,0.04296875,0.708984375,-22.4375,32.9375,18.9375,34.03125
599,-0.388671875,0.04296875,0.708984375,-22.4375,32.9375,18.9375,34.03125
601,-0.37890625,0.0419921875,0.73095703125,-17.8125,34.0625,18.0,34.03125
603,-0.37890625,0.0419921875,0.73095703125,-17.8125,34.0625,18.0,34.03125
605,-0.359619140625,0.0419921875,0.758544921875,-12.125,35.625,16.9375,34.03125
608,-0.359619140625,0.0419921875,0.758544921875,-12.125,35.625,16.9375,34.03125
609,-0.330322265625,0.045166015625,0.787353515625,-6.5,37.0,15.6875,34.03125
611,-0.330322265625,0.045166015625,0.787353515625,-6.5,37.0,15.6875,34.03125
613,-0.293212890625,0.054443359375,0.819091796875,-0.75,38.5,14.5,34.03125
615,-0.293212890625,0.054443359375,0.819091796875,-0.75,38.5,14.5,34.03125
617,-0.293212890625,0.054443359375,0.819091796875,-0.75,38.5,14.5,34.03125
619,-0.254638671875,0.066162109375,0.84765625,4.0625,40.5,13.1875,34.03125
621,-0.254638671875,0.066162109375,0.84765625,4.0625,40.5,13.1875,34.03125
623,-0.21728515625,0.083740234375,0.87255859375,6.0625,43.625,12.25,34.03125
625,-0.21728515625,0.083740234375,0.87255859375,6.0625,43.625,12.25,34.03125
627,-0.18212890625,0.098876953125,0.900634765625,5.875,47.8125,11.4375,34.03125
629,-0.18212890625,0.098876953125,0.900634765625,5.875,47.8125,11.4375,34.03125
631,-0.149169921875,0.111083984375,0.934326171875,5.0625,52.6875,11.1875,34.03125
633,-0.149169921875,0.111083984375,0.934326171875,5.0625,52.6875,11.1875,34.03125
635,-0.149169921875,0.111083984375,0.934326171875,5.0625,52.6875,11.1875,34.03125
637,-0.1396484375,0.1240234375,0.981201171875,4.625,58.5625,10.75,34.03125
639,-0.1396484375,0.1240234375,0.981201171875,4.625,58.5625,10.75,34.03125
641,-0.128173828125,0.1396484375,1.02783203125,5.0625,65.25,10.0,34.03125
643,-0.128173828125,0.1396484375,1.02783203125,5.0625,65.25,10.0,34.03125
645,-0.114990234375,0.14892578125,1.073486328125,5.75,71.5625,9.125,34.03125
647,-0.114990234375,0.14892578125,1.073486328125,5.75,71.5625,9.125,34.03125
649,-0.114990234375,0.14892578125,1.1259765625,6.5625,77.25,8.4375,34.03125
651,-0.117919921875,0.142822265625,1.1259765625,6.5625,77.25,8.4375,34.03125
653,-0.117919921875,0.142822265625,1.1259765625,6.5625,77.25,8.4375,34.03125
655,-0.136474609375,0.127685546875,1.182861328125,9.0625,82.0625,7.9375,34.03125
657,-0.136474609375,0.127685546875,1.182861328125,9.0625,82.0625,7.9375,34.03125
659,-0.162109375,0.11767578125,1.25927734375,14.875,84.9375,6.5625,34.03125
661,-0.162109375,0.11767578125,1.25927734375,14.875,84.9375,6.5625,34.03125
663,-0.18212890625,0.129638671875,1.317626953125,25.75,83.8125,3.75,34.03125
665,-0.18212890625,0.129638671875,1.317626953125,25.75,83.8125,3.75,34.03125
667,-0.18212890625,0.172607421875,1.356689453125,28.875,81.5,1.0625,34.03125
669,-0.18212890625,0.172607421875,1.356689453125,28.875,81.5,1.0625,34.03125
671,-0.18212890625,0.172607421875,1.356689453125,28.875,81.5,1.0625,34.03125
672,-0.175537109375,0.2099609375,1.418212890625,28.75,81.75,0.25,34.03125
675,-0.175537109375,0.2099609375,1.418212890625,28.75,81.75,0.25,34.03125
677,-0.171630859375,0.237548828125,1.46875,25.125,84.75,1.0,34.03125
679,-0.171630859375,0.237548828125,1.46875,25.125,84.75,1.0,34.03125
681,-0.173095703125,0.248291015625,1.527099609375,21.9375,88.1875,2.4375,34.03125
683,-0.173095703125,0.248291015625,1.527099609375,21.9375,88.1875,2.4375,34.03125
685,-0.17333984375,0.250244140625,1.577392578125,20.375,89.875,3.5625,34.03125
687,-0.17333984375,0.250244140625,1.577392578125,20.375,89.875,3.5625,34.03125
689,-0.1748046875,0.251708984375,1.62109375,18.375,89.9375,4.625,34.04296875
691,-0.1748046875,0.251708984375,1.62109375,18.375,89.9375,4.625,34.04296875
693,-0.1748046875,0.251708984375,1.62109375,16.3125,89.5625,5.8125,34.04296875
695,-0.189697265625,0.259765625,1.675048828125,16.3125,89.5625,5.8125,34.04296875
697,-0.189697265625,0.259765625,1.675048828125,16.3125,89.5625,5.8125,34.04296875
699,-0.21044921875,0.278564453125,1.749267578125,14.6875,89.0,6.4375,34.04296875
701,-0.21044921875,0.278564453125,1.749267578125,14.6875,89.0,6.4375,34.04296875
703,-0.23291015625,0.294677734375,1.81396484375,11.1875,88.9375,7.0625,34.04296875
705,-0.23291015625,0.294677734375,1.81396484375,11.1875,88.9375,7.0625,34.04296875
707,-0.261474609375,0.296875,1.860107421875,6.5625,88.375,8.25,34.04296875
709,-0.261474609375,0.296875,1.860107421875,6.5625,88.375,8.25,34.04296875
711,-0.30615234375,0.278564453125,1.89990234375,2.4375,86.3125,9.75,34.04296875
713,-0.30615234375,0.278564453125,1.89990234375,2.4375,86.3125,9.75,34.04296875
715,-0.30615234375,0.278564453125,1.89990234375,2.4375,86.3125,9.75,34.04296875
717,-0.371337890625,0.248046875,1.948974609375,0.75,83.5,11.125,34.04296875
719,-0.371337890625,0.248046875,1.948974609375,0.75,83.5,11.125,34.04296875
720,-0.430908203125,0.209228515625,2.0029296875,1.4375,80.5,12.375,34.04296875
722,-0.430908203125,0.209228515625,2.0029296875,1.4375,80.5,12.375,34.04296875
724,-0.482666015625,0.163818359375,2.0615234375,4.625,76.625,13.625,34.04296875
727,-0.482666015625,0.163818359375,2.0615234375,4.625,76.625,13.625,34.04296875
729,-0.537353515625,0.1142578125,2.12353515625,11.375,72.375,14.25,34.04296875
731,-0.537353515625,0.1142578125,2.12353515625,11.375,72.375,14.25,34.04296875
733,-0.537353515625,0.1142578125,2.12353515625,11.375,67.8125,13.875,34.04296875
735,-0.59228515625,0.079345703125,2.18017578125,20.875,67.8125,13.875,34.04296875
737,-0.59228515625,0.079345703125,2.18017578125,20.875,67.8125,13.875,34.04296875
739,-0.6611328125,0.077880859375,2.245849609375,30.375,63.25,13.0625,34.04296875
741,-0.6611328125,0.077880859375,2.245849609375,30.375,63.25,13.0625,34.04296875
742,-0.749267578125,0.10791015625,2.31640625,37.5,58.625,12.0625,34.04296875
744,-0.749267578125,0.10791015625,2.31640625,37.5,58.625,12.0625,34.04296875
746,-0.841796875,0.157958984375,2.3955078125,40.625,54.0,10.9375,34.04296875
749,-0.841796875,0.157958984375,2.3955078125,40.625,54.0,10.9375,34.04296875
751,-0.92919921875,0.20458984375,2.462158203125,38.8125,49.1875,9.8125,34.04296875
753,-0.92919921875,0.20458984375,2.462158203125,38.8125,49.1875,9.8125,34.04296875
755,-0.92919921875,0.20458984375,2.462158203125,38.8125,49.1875,9.8125,34.04296875
757,-1.0068359375,0.23583984375,2.46923828125,32.8125,44.1875,8.75,34.04296875
759,-1.0068359375,0.23583984375,2.46923828125,32.8125,44.1875,8.75,34.04296875
761,-1.076904296875,0.254638671875,2.499267578125,23.4375,39.625,7.5,34.04296875
763,-1.076904296875,0.254638671875,2.499267578125,23.4375,39.625,7.5,34.04296875
765,-1.152587890625,0.2822265625,2.5849609375,11.4375,34.5,5.375,34.04296875
766,-1.152587890625,0.2822265625,2.5849609375,11.4375,34.5,5.375,34.04296875
768,-1.235107421875,0.325927734375,2.675048828125,-2.9375,28.8125,3.0,34.04296875
770,-1.235107421875,0.325927734375,2.675048828125,-2.9375,28.8125,3.0,34.04296875
773,-1.235107421875,0.325927734375,2.675048828125,-18.875,20.6875,0.75,34.04296875
775,-1.330322265625,0.364013671875,2.74951171875,-18.875,20.6875,0.75,34.04296875
777,-1.330322265625,0.364013671875,2.74951171875,-18.875,20.6875,0.75,34.04296875
778,-1.440673828125,0.390869140625,2.80517578125,-34.375,7.6875,-0.125,34.04296875
781,-1.440673828125,0.390869140625,2.80517578125,-34.375,7.6875,-0.125,34.04296875
782,-1.546630859375,0.39697265625,2.8349609375,-46.4375,-10.625,0.4375,34.04296875
784,-1.546630859375,0.39697265625,2.8349609375,-46.4375,-10.625,0.4375,34.04296875
786,-1.64501953125,0.38232421875,2.84912109375,-54.3125,-33.375,1.5625,34.04296875
788,-1.64501953125,0.38232421875,2.84912109375,-54.3125,-33.375,1.5625,34.04296875
790,-1.64501953125,0.38232421875,2.84912109375,-54.3125,-33.375,1.5625,34.04296875
792,-1.748046875,0.377685546875,2.84130859375,-59.125,-60.0625,6.1875,34.04296875
794,-1.748046875,0.377685546875,2.84130859375,-59.125,-60.0625,6.1875,34.04296875
796,-1.833251953125,0.374755859375,2.793212890625,-61.5,-88.6875,12.875,34.04296875
798,-1.833251953125,0.374755859375,2.793212890625,-61.5,-88.6875,12.875,34.04296875
800,-1.873046875,0.36572265625,2.6796875,-63.3125,-110.0625,18.6875,34.04296875
802,-1.873046875,0.36572265625,2.6796875,-63.3125,-110.0625,18.6875,34.04296875
804,-1.880859375,0.312255859375,2.5830078125,-67.125,-129.0625,21.625,34.04296875
806,-1.880859375,0.312255859375,2.5830078125,-67.125,-129.0625,21.625,34.04296875
808,-1.880859375,0.312255859375,2.5830078125,-67.125,-129.0625,21.625,34.04296875
810,-1.90673828125,0.24072265625,2.48681640625,-69.75,-148.6875,25.9375,34.04296875
812,-1.90673828125,0.24072265625,2.48681640625,-69.75,-148.6875,25.9375,34.04296875
814,-1.952392578125,0.170166015625,2.43896484375,-70.75,-165.4375,31.8125,34.04296875
816,-1.952392578125,0.170166015625,2.43896484375,-70.75,-165.4375,31.8125,34.04296875
818,-1.9912109375,0.1162109375,2.3427734375,-70.875,-180.125,36.9375,34.04296875
820,-1.9912109375,0.1162109375,2.3427734375,-70.875,-180.125,36.9375,34.04296875
822,-2.01806640625,0.077880859375,2.231689453125,-71.0,-194.1875,40.625,34.04296875
823,-2.01806640625,0.077880859375,2.231689453125,-71.0,-194.1875,40.625,34.04296875
825,-2.01806640625,0.077880859375,2.231689453125,-71.0,-194.1875,40.625,34.04296875
827,-2.06787109375,0.037841796875,2.12841796875,-72.125,-205.4375,42.8125,34.04296875
829,-2.06787109375,0.037841796875,2.12841796875,-72.125,-205.4375,42.8125,34.04296875
831,-2.12255859375,-0.004638671875,2.043701171875,-74.1875,-213.75,41.0625,34.04296875
833,-2.12255859375,-0.004638671875,2.043701171875,-74.1875,-213.75,41.0625,34.04296875
835,-2.152099609375,-0.034912109375,1.98046875,-75.6875,-221.0,35.625,34.04296875
838,-2.152099609375,-0.034912109375,1.98046875,-75.6875,-221.0,35.625,34.04296875
840,-2.180908203125,-0.057373046875,1.93212890625,-76.125,-228.4375,28.125,34.04296875
841,-2.180908203125,-0.057373046875,1.93212890625,-76.125,-228.4375,28.125,34.04296875
843,-2.180908203125,-0.057373046875,1.93212890625,-76.125,-228.4375,19.75,34.04296875
845,-2.221923828125,-0.060302734375,1.89501953125,-75.4375,-235.875,19.75,34.04296875
847,-2.221923828125,-0.060302734375,1.89501953125,-75.4375,-235.875,19.75,34.04296875
849,-2.25830078125,-0.050537109375,1.856201171875,-73.75,-243.1875,11.75,34.04296875
851,-2.25830078125,-0.050537109375,1.856201171875,-73.75,-243.1875,11.75,34.04296875
853,-2.286376953125,-0.037353515625,1.809814453125,-71.4375,-250.4375,4.4375,34.04296875
855,-2.286376953125,-0.037353515625,1.809814453125,-71.4375,-250.4375,4.4375,34.04296875
857,-2.30029296875,-0.0224609375,1.75048828125,-69.5,-258.75,-1.6875,34.04296875
859,-2.30029296875,-0.0224609375,1.75048828125,-69.5,-258.75,-1.6875,34.04296875
861,-2.283447265625,-0.03662109375,1.628173828125,-72.5,-267.0,-8.5,34.04296875
863,-2.283447265625,-0.03662109375,1.628173828125,-72.5,-267.0,-8.5,34.04296875
865,-2.283447265625,-0.03662109375,1.628173828125,-72.5,-267.0,-8.5,34.04296875
867,-2.25927734375,-0.05029296875,1.4404296875,-91.1875,-271.875,-17.875,34.04296875
869,-2.25927734375,-0.05029296875,1.4404296875,-91.1875,-271.875,-17.875,34.04296875
871,-2.258056640625,0.042236328125,1.4287109375,-105.875,-274.5625,-26.1875,34.04296875
874,-2.258056640625,0.042236328125,1.4287109375,-105.875,-274.5625,-26.1875,34.04296875
875,-2.2841796875,0.067138671875,1.426513671875,-104.0625,-278.625,-30.1875,34.04296875
877,-2.2841796875,0.067138671875,1.426513671875,-104.0625,-278.625,-30.1875,34.04296875
879,-2.290771484375,-0.03369140625,1.2607421875,-109.75,-294.25,-26.5625,34.04296875
882,-2.290771484375,-0.03369140625,1.2607421875,-109.75,-294.25,-26.5625,34.04296875
884,-2.099365234375,-0.05517578125,1.2890625,-107.0,-314.375,-22.5625,34.04296875
886,-2.099365234375,-0.05517578125,1.2890625,-107.0,-314.375,-22.5625,34.04296875
887,-2.099365234375,-0.05517578125,1.2890625,-107.0,-314.375,-22.5625,34.04296875
889,-2.000244140625,0.048828125,1.290283203125,-93.25,-321.625,-29.5625,34.04296875
891,-2.000244140625,0.048828125,1.290283203125,-93.25,-321.625,-29.5625,34.04296875
893,-1.956298828125,0.102294921875,1.17529296875,-90.1875,-322.625,-39.625,34.04296875
895,-1.956298828125,0.102294921875,1.17529296875,-90.1875,-322.625,-39.625,34.04296875
897,-1.847412109375,0.0947265625,1.0556640625,-92.8125,-324.125,-45.8125,34.04296875
902,-1.86376953125,0.1064453125,0.952880859375,-96.5625,-327.6875,-45.3125,34.04296875
904,-1.86376953125,0.1064453125,0.952880859375,-96.5625,-327.6875,-45.3125,34.04296875
907,-1.86474609375,0.127685546875,0.89111328125,-97.4375,-330.875,-40.125,34.04296875
909,-1.86474609375,0.127685546875,0.89111328125,-97.4375,-330.875,-40.125,34.04296875
911,-1.822265625,0.135986328125,0.8291015625,-94.0,-333.0625,-35.0,34.04296875
913,-1.822265625,0.135986328125,0.8291015625,-94.0,-333.0625,-35.0,34.04296875
915,-1.769775390625,0.139404296875,0.767822265625,-87.5625,-334.5,-32.4375,34.04296875
917,-1.769775390625,0.139404296875,0.767822265625,-87.5625,-334.5,-32.4375,34.04296875
919,-1.70361328125,0.1552734375,0.732666015625,-79.875,-333.1875,-31.5,34.04296875
921,-1.70361328125,0.1552734375,0.732666015625,-79.875,-333.1875,-31.5,34.04296875
923,-1.70361328125,0.1552734375,0.732666015625,-79.875,-333.1875,-31.5,34.04296875
925,-1.644287109375,0.16650390625,0.697998046875,-73.125,-328.75,-30.625,34.04296875
927,-1.644287109375,0.16650390625,0.697998046875,-73.125,-328.75,-30.625,34.04296875
930,-1.593505859375,0.1630859375,0.656494140625,-68.3125,-322.8125,-28.75,34.04296875
931,-1.593505859375,0.1630859375,0.656494140625,-68.3125,-322.8125,-28.75,34.04296875
933,-1.547119140625,0.153564453125,0.609619140625,-64.625,-316.6875,-26.0625,34.04296875
935,-1.547119140625,0.153564453125,0.609619140625,-64.625,-316.6875,-26.0625,34.04296875
937,-1.51953125,0.155517578125,0.56494140625,-62.8125,-310.375,-23.625,34.04296875
939,-1.51953125,0.155517578125,0.56494140625,-62.8125,-310.375,-23.625,34.04296875
941,-1.480712890625,0.1591796875,0.5224609375,-63.75,-304.0625,-22.1875,34.04296875
943,-1.480712890625,0.1591796875,0.5224609375,-63.75,-304.0625,-22.1875,34.04296875
945,-1.480712890625,0.1591796875,0.5224609375,-63.75,-304.0625,-22.1875,34.04296875
947,-1.455078125,0.15771484375,0.47802734375,-67.0,-298.375,-22.1875,34.04296875
949,-1.455078125,0.15771484375,0.47802734375,-67.0,-298.375,-22.1875,34.04296875
952,-1.4111328125,0.141845703125,0.436279296875,-70.25,-294.4375,-24.3125,34.04296875
954,-1.4111328125,0.141845703125,0.436279296875,-70.25,-294.4375,-24.3125,34.04296875
955,-1.353515625,0.1201171875,0.4091796875,-74.5625,-291.625,-27.5625,34.04296875
958,-1.353515625,0.1201171875,0.4091796875,-74.5625,-291.625,-27.5625,34.04296875
960,-1.29541015625,0.10400390625,0.382080078125,-79.5625,-291.1875,-31.375,34.04296875
962,-1.29541015625,0.10400390625,0.382080078125,-79.5625,-291.1875,-31.375,34.04296875
963,-1.217529296875,0.10205078125,0.350341796875,-83.5,-292.875,-33.875,34.04296875
965,-1.217529296875,0.10205078125,0.350341796875,-83.5,-292.875,-33.875,34.04296875
967,-1.217529296875,0.10205078125,0.350341796875,-83.5,-292.875,-33.875,34.04296875
969,-1.148681640625,0.109619140625,0.308349609375,-86.5,-295.25,-34.9375,34.04296875
971,-1.148681640625,0.109619140625,0.308349609375,-86.5,-295.25,-34.9375,34.04296875
974,-1.089599609375,0.122802734375,0.268798828125,-88.125,-297.1875,-34.8125,34.078125
976,-1.089599609375,0.122802734375,0.268798828125,-88.125,-297.1875,-34.8125,34.078125
978,-1.029296875,0.144775390625,0.232666015625,-88.25,-298.0625,-34.25,34.078125
979,-1.029296875,0.144775390625,0.232666015625,-88.25,-298.0625,-34.25,34.078125
981,-0.9658203125,0.17041015625,0.2001953125,-86.5,-297.9375,-33.625,34.078125
983,-0.9658203125,0.17041015625,0.2001953125,-86.5,-297.9375,-33.625,34.078125
985,-0.9658203125,0.17041015625,0.2001953125,-86.5,-296.0625,-32.6875,34.078125
987,-0.8896484375,0.18798828125,0.172119140625,-83.4375,-296.0625,-32.6875,34.078125
989,-0.8896484375,0.18798828125,0.172119140625,-83.4375,-296.0625,-32.6875,34.078125
991,-0.81298828125,0.1923828125,0.14599609375,-79.5,-292.0,-31.1875,34.078125
993,-0.81298828125,0.1923828125,0.14599609375,-79.5,-292.0,-31.1875,34.078125
995,-0.734130859375,0.18896484375,0.1162109375,-75.125,-286.25,-28.25,34.078125
997,-0.734130859375,0.18896484375,0.1162109375,-75.125,-286.25,-28.25,34.078125
999,-0.647705078125,0.174560546875,0.096923828125,-69.6875,-278.5625,-25.0625,34.078125
1001,-0.647705078125,0.174560546875,0.096923828125,-69.6875,-278.5625,-25.0625,34.078125
1003,-0.578857421875,0.148681640625,0.0830078125,-64.5625,-268.625,-21.125,34.078125
1005,-0.578857421875,0.148681640625,0.0830078125,-64.5625,-268.625,-21.125,34.078125
1007,-0.578857421875,0.148681640625,0.0830078125,-64.5625,-268.625,-21.125,34.078125
1009,-0.526611328125,0.119873046875,0.07421875,-59.6875,-256.4375,-17.1875,34.078125
1011,-0.526611328125,0.119873046875,0.07421875,-59.6875,-256.4375,-17.1875,34.078125
1013,-0.4990234375,0.08544921875,0.062744140625,-55.0625,-243.5,-14.0,34.078125
1015,-0.4990234375,0.08544921875,0.062744140625,-55.0625,-243.5,-14.0,34.078125
1018,-0.4775390625,0.050048828125,0.0546875,-50.375,-231.625,-12.25,34.078125
1020,-0.4775390625,0.050048828125,0.0546875,-50.375,-231.625,-12.25,34.078125
1022,-0.476318359375,0.007080078125,0.054443359375,-46.875,-221.5,-12.25,34.078125
1024,-0.476318359375,0.007080078125,0.054443359375,-46.875,-221.5,-12.25,34.078125
1026,-0.498291015625,-0.0400390625,0.049072265625,-43.625,-213.75,-13.8125,34.078125
1028,-0.498291015625,-0.0400390625,0.049072265625,-43.625,-213.75,-13.8125,34.078125
1030,-0.560791015625,-0.084716796875,0.048583984375,-38.75,-208.75,-16.8125,34.078125
1032,-0.5224609375,-0.084716796875,0.048583984375,-38.75,-208.75,-16.8125,34.078125
1033,-0.5224609375,-0.084716796875,0.048583984375,-38.75,-208.75,-16.8125,34.078125
1035,-0.5302734375,-0.10791015625,0.05517578125,-33.0625,-206.125,-21.0,34.078125
1037,-0.5302734375,-0.10791015625,0.05517578125,-33.0625,-206.125,-21.0,34.078125
1040,-0.522216796875,-0.110107421875,0.059814453125,-27.375,-204.75,-26.75,34.078125
1042,-0.522216796875,-0.110107421875,0.059814453125,-27.375,-204.75,-26.75,34.078125
1044,-0.49951171875,-0.096923828125,0.061767578125,-21.875,-203.9375,-34.125,34.078125
1045,-0.49951171875,-0.096923828125,0.061767578125,-21.875,-203.9375,-34.125,34.078125
1047,-0.46826171875,-0.069580078125,0.060791015625,-17.3125,-202.625,-42.4375,34.078125
1050,-0.46826171875,-0.069580078125,0.060791015625,-17.3125,-202.625,-42.4375,34.078125
1051,-0.46826171875,-0.069580078125,0.060791015625,-17.3125,-202.625,-42.4375,34.078125
1053,-0.43212890625,-0.035888671875,0.05224609375,-13.1875,-199.1875,-50.9375,34.078125
1055,-0.43212890625,-0.035888671875,0.05224609375,-13.1875,-199.1875,-50.9375,34.078125
1057,-0.412109375,0.01025390625,0.03662109375,-8.9375,-192.1875,-57.3125,34.078125
1059,-0.412109375,0.01025390625,0.03662109375,-8.9375,-192.1875,-57.3125,34.078125
1062,-0.374755859375,0.07861328125,0.0146484375,-4.5,-181.875,-60.9375,34.078125
1064,-0.374755859375,0.07861328125,0.0146484375,-4.5,-181.875,-60.9375,34.078125
1066,-0.3076171875,0.141845703125,-0.009033203125,0.5,-168.6875,-62.5,34.078125
1068,-0.3076171875,0.141845703125,-0.009033203125,0.5,-168.6875,-62.5,34.078125
1070,-0.232177734375,0.19482421875,-0.034423828125,4.8125,-154.5625,-61.5625,34.078125
1072,-0.232177734375,0.19482421875,-0.034423828125,4.8125,-154.5625,-61.5625,34.078125
1074,-0.1650390625,0.23193359375,-0.056396484375,8.25,-140.75,-58.4375,34.078125
1076,-0.1650390625,0.23193359375,-0.056396484375,8.25,-140.75,-58.4375,34.078125
1078,-0.1650390625,0.23193359375,-0.056396484375,8.25,-140.75,-52.125,34.078125
1080,-0.1142578125,0.250244140625,-0.075927734375,10.75,-126.3125,-52.125,34.078125
1082,-0.1142578125,0.250244140625,-0.075927734375,10.75,-126.3125,-52.125,34.078125
1085,-0.086669921875,0.26171875,-0.093017578125,11.1875,-111.3125,-43.4375,34.078125
1087,-0.086669921875,0.26171875,-0.093017578125,11.1875,-111.3125,-43.4375,34.078125
1088,-0.1015625,0.262939453125,-0.093017578125,10.5625,-97.1875,-33.5,34.078125
1090,-0.1015625,0.262939453125,-0.093017578125,10.5625,-97.1875,-33.5,34.078125
1092,-0.136474609375,0.248046875,-0.0859375,9.25,-84.625,-23.625,34.078125
1094,-0.136474609375,0.248046875,-0.0859375,9.25,-84.625,-23.625,34.078125
1096,-0.17041015625,0.22021484375,-0.077880859375,7.875,-74.8125,-15.5625,34.078125
1098,-0.17041015625,0.22021484375,-0.077880859375,7.875,-74.8125,-15.5625,34.078125
1100,-0.17041015625,0.22021484375,-0.077880859375,7.875,-74.8125,-15.5625,34.078125
1102,-0.1962890625,0.197998046875,-0.0703125,7.75,-67.625,-9.0625,34.078125
1104,-0.1962890625,0.197998046875,-0.0703125,7.75,-67.625,-9.0625,34.078125
1107,-0.213623046875,0.176025390625,-0.06103515625,8.125,-61.625,-4.375,34.078125
1108,-0.213623046875,0.176025390625,-0.06103515625,8.125,-61.625,-4.375,34.078125
1111,-0.227783203125,0.151123046875,-0.060546875,7.875,-54.5,-3.625,34.078125
1113,-0.227783203125,0.151123046875,-0.060546875,7.875,-54.5,-3.625,34.078125
1114,-0.241455078125,0.126708984375,-0.05810546875,6.625,-45.9375,-4.9375,34.03515625
1116,-0.241455078125,0.126708984375,-0.05810546875,6.625,-45.9375,-4.9375,34.03515625
1118,-0.2060546875,0.101318359375,-0.02587890625,1.75,-41.3125,-6.0625,34.03515625
1120,-0.2060546875,0.101318359375,-0.02587890625,1.75,-41.3125,-6.0625,34.03515625
1122,-0.2060546875,0.101318359375,-0.02587890625,1.75,-41.3125,-6.0625,34.03515625
1124,-0.19140625,0.082275390625,-0.00439453125,-4.9375,-40.8125,-6.75,34.03515625
1126,-0.19140625,0.082275390625,-0.00439453125,-4.9375,-40.8125,-6.75,34.03515625
1129,-0.20654296875,0.070556640625,-0.001953125,-10.875,-38.625,-8.0,34.03515625
1130,-0.20654296875,0.070556640625,-0.001953125,-10.875,-38.625,-8.0,34.03515625
1132,-0.199462890625,0.059814453125,-0.0126953125,-16.3125,-34.6875,-11.875,34.03515625
1134,-0.199462890625,0.059814453125,-0.0126953125,-16.3125,-34.6875,-11.875,34.03515625
1136,-0.171875,0.04443359375,-0.025146484375,-22.3125,-30.5625,-18.1875,34.03515625
1138,-0.171875,0.04443359375,-0.025146484375,-22.3125,-30.5625,-18.1875,34.03515625
1140,-0.171875,0.04443359375,-0.025146484375,-28.0625,-27.0625,-25.9375,34.03515625
1142,-0.1474609375,0.029296875,-0.03662109375,-28.0625,-27.0625,-25.9375,34.03515625
1144,-0.1474609375,0.029296875,-0.03662109375,-28.0625,-27.0625,-25.9375,34.03515625
1146,-0.13525390625,0.014892578125,-0.05322265625,-32.0625,-24.5625,-34.1875,34.03515625
1148,-0.13525390625,0.014892578125,-0.05322265625,-32.0625,-24.5625,-34.1875,34.03515625
1150,-0.120361328125,0.012451171875,-0.073974609375,-33.875,-23.8125,-42.6875,34.03515625
1152,-0.120361328125,0.012451171875,-0.073974609375,-33.875,-23.8125,-42.6875,34.03515625
1154,-0.08251953125,0.018798828125,-0.0859375,-34.875,-24.5625,-51.125,34.03515625
1156,-0.08251953125,0.018798828125,-0.0859375,-34.875,-24.5625,-51.125,34.03515625
1158,-0.023193359375,0.024169921875,-0.091552734375,-35.3125,-25.1875,-58.0625,34.03515625
1160,-0.023193359375,0.024169921875,-0.091552734375,-35.3125,-25.1875,-58.0625,34.03515625
1162,-0.023193359375,0.024169921875,-0.091552734375,-35.3125,-25.1875,-58.0625,34.03515625
1164,0.045166015625,0.0283203125,-0.0966796875,-34.5625,-24.1875,-62.125,34.03515625
1166,0.045166015625,0.0283203125,-0.0966796875,-34.5625,-24.1875,-62.125,34.03515625
1168,0.10546875,0.0361328125,-0.1083984375,-33.0,-20.8125,-63.375,34.03515625
1170,0.10546875,0.0361328125,-0.1083984375,-33.0,-20.8125,-63.375,34.03515625
1172,0.16357421875,0.046630859375,-0.116943359375,-31.75,-15.0,-61.6875,34.03515625
1174,0.16357421875,0.046630859375,-0.116943359375,-31.75,-15.0,-61.6875,34.03515625
1176,0.205810546875,0.0576171875,-0.115478515625,-30.0625,-7.8125,-58.1875,34.03515625
1178,0.205810546875,0.0576171875,-0.115478515625,-30.0625,-7.8125,-58.1875,34.03515625
1180,0.205810546875,0.062255859375,-0.12060546875,-26.5625,-0.0625,-52.625,34.03515625
1182,0.217529296875,0.062255859375,-0.12060546875,-26.5625,-0.0625,-52.625,34.03515625
1184,0.217529296875,0.062255859375,-0.12060546875,-26.5625,-0.0625,-52.625,34.03515625
1186,0.216552734375,0.059326171875,-0.1220703125,-21.875,7.9375,-45.5,34.03515625
1188,0.216552734375,0.059326171875,-0.1220703125,-21.875,7.9375,-45.5,34.03515625
1190,0.206298828125,0.053466796875,-0.117431640625,-16.0625,15.0625,-37.3125,34.03515625
1192,0.206298828125,0.053466796875,-0.117431640625,-16.0625,15.0625,-37.3125,34.03515625
1194,0.193115234375,0.045166015625,-0.10400390625,-9.5,20.6875,-29.375,34.03515625
1196,0.193115234375,0.045166015625,-0.10400390625,-9.5,20.6875,-29.375,34.03515625
1198,0.18798828125,0.033935546875,-0.079833984375,-2.8125,25.5,-22.9375,34.03515625
1200,0.18798828125,0.033935546875,-0.079833984375,-2.8125,25.5,-22.9375,34.03515625
1202,0.18798828125,0.033935546875,-0.079833984375,-2.8125,25.5,-22.9375,34.03515625
1204,0.18603515625,0.01513671875,-0.048095703125,4.4375,30.0,-18.0625,34.03515625
1206,0.18603515625,0.01513671875,-0.048095703125,4.4375,30.0,-18.0625,34.03515625
1208,0.186767578125,-0.00439453125,-0.011474609375,11.8125,34.25,-15.3125,34.03515625
1210,0.186767578125,-0.00439453125,-0.011474609375,11.8125,34.25,-15.3125,34.03515625
1211,0.185791015625,-0.011474609375,0.015869140625,18.6875,37.5,-13.9375,34.03515625
1213,0.185791015625,-0.011474609375,0.015869140625,18.6875,37.5,-13.9375,34.03515625
1216,0.18212890625,-0.007568359375,0.038330078125,24.0625,39.375,-13.75,34.03515625
1218,0.18212890625,-0.007568359375,0.038330078125,24.0625,39.375,-13.75,34.03515625
1220,0.18212890625,-0.007568359375,0.038330078125,24.0625,39.375,-13.75,34.03515625
1221,0.1865234375,0.0029296875,0.055419921875,27.5625,40.375,-14.125,34.03515625
1224,0.1865234375,0.0029296875,0.055419921875,27.5625,40.375,-14.125,34.03515625
1226,0.1962890625,0.023681640625,0.07470703125,28.6875,40.6875,-14.3125,34.03515625
1228,0.1962890625,0.023681640625,0.07470703125,28.6875,40.6875,-14.3125,34.03515625
1230,0.208740234375,0.05126953125,0.10302734375,26.6875,41.25,-13.9375,34.03515625
1231,0.208740234375,0.05126953125,0.10302734375,26.6875,41.25,-13.9375,34.03515625
1233,0.208740234375,0.07470703125,0.130859375,21.75,42.3125,-13.0,34.03515625
1235,0.2177734375,0.07470703125,0.130859375,21.75,42.3125,-13.0,34.03515625
1238,0.223876953125,0.08203125,0.1474609375,15.5,43.6875,-11.4375,34.03515625
1240,0.223876953125,0.08203125,0.1474609375,15.5,43.6875,-11.4375,34.03515625
1242,0.223876953125,0.08203125,0.1474609375,15.5,43.6875,-11.4375,34.03515625
1244,0.231689453125,0.0771484375,0.155517578125,8.875,44.8125,-9.125,34.03515625
1245,0.231689453125,0.0771484375,0.155517578125,8.875,44.8125,-9.125,34.03515625
1247,0.235595703125,0.06494140625,0.157958984375,3.375,46.1875,-6.25,34.03515625
1249,0.235595703125,0.06494140625,0.157958984375,3.375,46.1875,-6.25,34.03515625
1251,0.230712890625,0.04931640625,0.15576171875,-0.4375,47.5,-3.25,34.03515625
1253,0.230712890625,0.04931640625,0.15576171875,-0.4375,47.5,-3.25,34.03515625
1255,0.230712890625,0.04931640625,0.15576171875,-0.4375,47.5,-3.25,34.03515625
1257,0.218994140625,0.03271484375,0.14697265625,-2.0,49.1875,-0.375,34.07421875
1260,0.218994140625,0.03271484375,0.14697265625,-2.0,49.1875,15.625,34.07421875
1262,0.20458984375,0.02099609375,0.13427734375,-1.1875,50.75,2.4375,34.07421875
1264,0.20458984375,0.02099609375,0.13427734375,-1.1875,50.75,2.4375,34.07421875
1266,0.19189453125,0.0107421875,0.122802734375,1.3125,52.0,6.125,34.07421875
1268,0.19189453125,0.0107421875,0.122802734375,1.3125,52.0,6.125,34.07421875
1270,0.1796875,-0.001708984375,0.112060546875,5.625,52.9375,9.9375,34.07421875
1272,0.1796875,-0.001708984375,0.112060546875,5.625,52.9375,9.9375,34.07421875
1274,0.167236328125,-0.015380859375,0.100830078125,10.5,54.5625,14.5625,34.07421875
1276,0.167236328125,-0.015380859375,0.100830078125,10.5,54.5625,14.5625,34.07421875
1278,0.167236328125,-0.015380859375,0.100830078125,15.3125,56.25,19.5625,34.07421875
1279,0.157470703125,-0.02490234375,0.09228515625,15.3125,56.25,19.5625,34.07421875
1282,0.157470703125,-0.02490234375,0.09228515625,15.3125,56.25,19.5625,34.07421875
1284,0.14453125,-0.032470703125,0.08935546875,19.8125,58.0,24.3125,34.07421875
1286,0.14453125,-0.032470703125,0.08935546875,19.8125,58.0,24.3125,34.07421875
1288,0.12548828125,-0.043212890625,0.089599609375,24.1875,59.625,28.8125,34.07421875
1290,0.12548828125,-0.043212890625,0.089599609375,24.1875,59.625,28.8125,34.07421875
1292,0.104736328125,-0.060546875,0.090087890625,28.25,61.9375,32.4375,34.07421875
1294,0.104736328125,-0.060546875,0.090087890625,28.25,61.9375,32.4375,34.07421875
1296,0.082763671875,-0.082275390625,0.0927734375,31.9375,64.875,34.4375,34.07421875
1299,0.082763671875,-0.082275390625,0.0927734375,31.9375,64.875,34.4375,34.07421875
1301,0.054443359375,-0.107421875,0.090087890625,35.625,68.375,35.0,34.07421875
1303,0.054443359375,-0.107421875,0.090087890625,35.625,68.375,35.0,34.07421875
1305,0.0185546875,-0.126953125,0.088623046875,39.125,71.875,34.9375,34.07421875
1308,0.0185546875,-0.126953125,0.088623046875,39.125,71.875,34.9375,34.07421875
1310,-0.020263671875,-0.13623046875,0.089599609375,41.5625,74.9375,34.3125,34.07421875
1312,-0.020263671875,-0.13623046875,0.089599609375,41.5625,74.9375,34.3125,34.07421875
1314,-0.06103515625,-0.13671875,0.091064453125,42.25,77.9375,33.0625,34.07421875
1316,-0.06103515625,-0.13671875,0.091064453125,42.25,77.9375,33.0625,34.07421875
1318,-0.06103515625,-0.13330078125,0.091796875,42.3125,80.8125,31.0625,34.07421875
1320,-0.103271484375,-0.13330078125,0.091796875,42.3125,80.8125,31.0625,34.07421875
1322,-0.103271484375,-0.13330078125,0.091796875,42.3125,80.8125,31.0625,34.07421875
1324,-0.1484375,-0.126708984375,0.090087890625,41.8125,83.4375,28.0625,34.07421875
1326,-0.1484375,-0.126708984375,0.090087890625,41.8125,83.4375,28.0625,34.07421875
1328,-0.198974609375,-0.116943359375,0.090087890625,40.6875,86.1875,24.3125,34.07421875
1331,-0.198974609375,-0.116943359375,0.090087890625,40.6875,86.1875,24.3125,34.07421875
1333,-0.248779296875,-0.1015625,0.093017578125,39.625,88.0625,20.0625,34.07421875
1335,-0.248779296875,-0.1015625,0.093017578125,39.625,88.0625,20.0625,34.07421875
1337,-0.2841796875,-0.078369140625,0.097900390625,38.5,89.5625,14.875,34.07421875
1339,-0.2841796875,-0.078369140625,0.097900390625,38.5,89.5625,14.875,34.07421875
1341,-0.30517578125,-0.05517578125,0.103515625,37.1875,91.0,9.8125,34.07421875
1343,-0.30517578125,-0.05517578125,0.103515625,37.1875,91.0,9.8125,34.07421875
1346,-0.32080078125,-0.03173828125,0.111572265625,36.375,92.1875,4.0625,34.07421875
1348,-0.32080078125,-0.03173828125,0.111572265625,36.375,92.1875,4.0625,34.07421875
1350,-0.33154296875,-0.005859375,0.118896484375,36.0,93.625,-2.125,34.07421875
1352,-0.33154296875,-0.005859375,0.118896484375,36.0,93.625,-2.125,34.07421875
1354,-0.330810546875,0.0244140625,0.12109375,36.8125,95.1875,-7.6875,34.07421875
1356,-0.330810546875,0.0244140625,0.12109375,36.8125,95.1875,-7.6875,34.07421875
1358,-0.315185546875,0.058837890625,0.12158203125,39.0625,96.3125,-11.8125,34.07421875
1360,-0.315185546875,0.058837890625,0.12158203125,39.0625,96.3125,-11.8125,34.07421875
1362,-0.294677734375,0.104736328125,0.133544921875,41.9375,97.0,-13.9375,34.07421875
1364,-0.294677734375,0.104736328125,0.133544921875,41.9375,97.0,-13.9375,34.07421875
1366,-0.294677734375,0.104736328125,0.133544921875,41.9375,97.0,-13.9375,34.07421875
1368,-0.287353515625,0.16552734375,0.1484375,43.9375,98.1875,-13.6875,34.07421875
1370,-0.287353515625,0.16552734375,0.1484375,43.9375,98.1875,-13.6875,34.07421875
1372,-0.291015625,0.221923828125,0.17138671875,43.625,101.125,-11.0625,34.07421875
1373,-0.291015625,0.221923828125,0.17138671875,43.625,101.125,-11.0625,34.07421875
1376,-0.29541015625,0.249755859375,0.173583984375,39.875,106.4375,-5.75,34.07421875
1378,-0.29541015625,0.249755859375,0.173583984375,39.875,106.4375,-5.75,34.07421875
1380,-0.3076171875,0.24951171875,0.158447265625,34.5,113.0625,1.5625,34.07421875
1382,-0.3076171875,0.24951171875,0.158447265625,34.5,113.0625,1.5625,34.07421875
1384,-0.3076171875,0.24951171875,0.158447265625,34.5,113.0625,1.5625,34.07421875
1386,-0.334716796875,0.239013671875,0.15576171875,29.0,120.5625,9.375,34.07421875
1388,-0.334716796875,0.239013671875,0.15576171875,29.0,120.5625,9.375,34.07421875
1390,-0.372802734375,0.2255859375,0.17236328125,23.875,129.125,16.6875,34.07421875
1391,-0.372802734375,0.2255859375,0.17236328125,23.875,129.125,16.6875,34.07421875
1393,-0.4267578125,0.204833984375,0.2041015625,19.75,137.9375,22.875,34.07421875
1395,-0.4267578125,0.204833984375,0.2041015625,19.75,137.9375,22.875,34.07421875
1398,-0.49560546875,0.173828125,0.232177734375,17.375,145.375,27.8125,34.07421875
1400,-0.49560546875,0.173828125,0.232177734375,17.375,145.375,27.8125,34.07421875
1402,-0.49560546875,0.173828125,0.232177734375,17.0625,150.8125,31.0625,34.07421875
1403,-0.56103515625,0.13818359375,0.254638671875,17.0625,150.8125,31.0625,34.07421875
1405,-0.56103515625,0.13818359375,0.254638671875,17.0625,150.8125,31.0625,34.07421875
1407,-0.617431640625,0.107666015625,0.27685546875,18.8125,154.375,32.625,34.07421875
1409,-0.617431640625,0.107666015625,0.27685546875,18.8125,154.375,32.625,34.07421875
1411,-0.666015625,0.0859375,0.299560546875,22.0,156.375,33.0625,34.07421875
1413,-0.666015625,0.0859375,0.299560546875,22.0,156.375,33.0625,34.07421875
1415,-0.728515625,0.084716796875,0.3193359375,25.5,156.875,32.1875,34.07421875
1417,-0.7060546875,0.084716796875,0.3193359375,25.5,156.875,32.1875,34.07421875
1420,-0.739013671875,0.099365234375,0.339111328125,28.1875,156.9375,29.8125,34.07421875
1421,-0.739013671875,0.099365234375,0.339111328125,28.1875,156.9375,29.8125,34.07421875
1423,-0.739013671875,0.099365234375,0.339111328125,28.1875,156.9375,29.8125,34.07421875
1425,-0.76416015625,0.1240234375,0.36328125,30.4375,156.8125,26.3125,34.07421875
1427,-0.76416015625,0.1240234375,0.36328125,30.4375,156.8125,26.3125,34.07421875
1429,-0.771728515625,0.159912109375,0.38818359375,32.5,155.625,21.625,34.07421875
1431,-0.771728515625,0.159912109375,0.38818359375,32.5,155.625,21.625,34.07421875
1433,-0.751953125,0.205322265625,0.42578125,34.5,153.5625,15.8125,34.07421875
1435,-0.751953125,0.205322265625,0.42578125,34.5,153.5625,15.8125,34.07421875
1437,-0.751953125,0.205322265625,0.481689453125,36.0625,151.5625,10.3125,34.07421875
1439,-0.71240234375,0.268798828125,0.481689453125,36.0625,151.5625,10.3125,34.07421875
1442,-0.680908203125,0.337890625,0.54345703125,37.4375,150.3125,6.25,34.07421875
1444,-0.680908203125,0.337890625,0.54345703125,37.4375,150.3125,6.25,34.07421875
1446,-0.680908203125,0.337890625,0.54345703125,37.4375,150.3125,6.25,34.07421875
1448,-0.63916015625,0.39794921875,0.58544921875,37.8125,151.5625,5.3125,34.07421875
1449,-0.63916015625,0.39794921875,0.58544921875,37.8125,151.5625,5.3125,34.07421875
1451,-0.577392578125,0.44775390625,0.628662109375,35.875,154.3125,7.0,34.07421875
1453,-0.577392578125,0.44775390625,0.628662109375,35.875,154.3125,7.0,34.07421875
1455,-0.556396484375,0.490234375,0.67138671875,34.375,158.25,10.375,34.07421875
1457,-0.556396484375,0.490234375,0.67138671875,34.375,158.25,10.375,34.07421875
1459,-0.556396484375,0.490234375,0.67138671875,18.375,164.25,16.0625,34.07421875
1461,-0.537353515625,0.5068359375,0.71044921875,31.0625,164.25,16.0625,34.07421875
1463,-0.537353515625,0.5068359375,0.71044921875,31.0625,164.25,16.0625,34.07421875
1465,-0.536376953125,0.496337890625,0.773193359375,25.875,170.625,25.1875,34.07421875
1467,-0.536376953125,0.496337890625,0.773193359375,25.875,170.625,25.1875,34.07421875
1470,-0.47314453125,0.478271484375,0.754638671875,22.9375,188.8125,34.625,34.07421875
1472,-0.47314453125,0.478271484375,0.754638671875,22.9375,188.8125,34.625,34.07421875
1474,-0.572021484375,0.36767578125,0.81884765625,18.75,202.25,27.875,34.07421875
1477,-0.572021484375,0.291015625,0.83544921875,12.25,197.75,19.25,34.07421875
1479,-0.768310546875,0.291015625,0.83544921875,12.25,197.75,19.25,34.07421875
1481,-0.768310546875,0.291015625,0.83544921875,12.25,197.75,19.25,34.07421875
1483,-0.941650390625,0.28125,0.88037109375,7.125,206.75,35.6875,34.07421875
1485,-0.941650390625,0.28125,0.88037109375,7.125,206.75,35.6875,34.07421875
1487,-0.955810546875,0.2333984375,0.881591796875,6.75,223.3125,63.0,34.07421875
1489,-0.955810546875,0.2333984375,0.881591796875,6.75,223.3125,63.0,34.07421875
1491,-0.94091796875,0.2119140625,0.8212890625,7.3125,228.75,79.75,34.07421875
1493,-0.94091796875,0.2119140625,0.8212890625,7.3125,228.75,79.75,34.07421875
1495,-0.96484375,0.1875,0.848876953125,9.6875,224.5625,84.875,34.07421875
1497,-0.96484375,0.1875,0.848876953125,9.6875,224.5625,84.875,34.07421875
1499,-1.0419921875,0.12109375,0.947998046875,13.875,217.6875,85.5,34.07421875
1501,-1.0419921875,0.12109375,0.947998046875,13.875,217.6875,85.5,34.07421875
1503,-1.0419921875,0.12109375,0.947998046875,13.875,217.6875,85.5,34.07421875
1505,-1.143310546875,0.0341796875,1.02880859375,19.0625,205.4375,83.5625,34.07421875
1507,-1.143310546875,0.0341796875,1.02880859375,19.0625,205.4375,83.5625,34.07421875
1509,-1.20458984375,-0.0458984375,1.087158203125,27.5,187.375,75.1875,34.07421875
1512,-1.20458984375,-0.0458984375,1.087158203125,27.5,187.375,75.1875,34.07421875
1514,-1.18408203125,-0.0947265625,1.13232421875,38.375,169.5,61.75,34.07421875
1516,-1.18408203125,-0.0947265625,1.13232421875,38.375,169.5,61.75,34.07421875
1518,-1.115478515625,-0.10546875,1.152099609375,47.6875,156.5,48.125,34.07421875
1520,-1.115478515625,-0.10546875,1.152099609375,47.6875,156.5,48.125,34.07421875
1522,-1.0478515625,-0.081298828125,1.142333984375,51.0625,148.1875,37.6875,34.07421875
1523,-1.0478515625,-0.081298828125,1.142333984375,51.0625,148.1875,37.6875,34.07421875
1526,-1.0478515625,-0.081298828125,1.142333984375,51.0625,148.1875,29.6875,34.07421875
1527,-1.011474609375,-0.04443359375,1.1181640625,48.8125,144.125,29.6875,34.07421875
1529,-1.011474609375,-0.04443359375,1.1181640625,48.8125,144.125,29.6875,34.07421875
1531,-1.00830078125,-0.008056640625,1.10498046875,43.3125,143.75,23.8125,34.07421875
1534,-1.00830078125,-0.008056640625,1.10498046875,43.3125,143.75,23.8125,34.07421875
1536,-1.028564453125,0.020751953125,1.1064453125,37.1875,146.25,19.1875,34.07421875
1538,-1.028564453125,0.020751953125,1.1064453125,37.1875,146.25,19.1875,34.07421875
1540,-1.061279296875,0.039794921875,1.115478515625,32.625,151.75,15.0625,34.07421875
1542,-1.061279296875,0.039794921875,1.115478515625,32.625,151.75,15.0625,34.07421875
1544,-1.0869140625,0.05078125,1.1376953125,30.5,158.5,10.6875,34.07421875
1546,-1.0869140625,0.05078125,1.1376953125,30.5,158.5,10.6875,34.07421875
1547,-1.0869140625,0.05078125,1.1376953125,30.5,158.5,10.6875,34.07421875
1550,-1.13623046875,0.063720703125,1.162353515625,32.25,164.9375,6.25,34.07421875
1552,-1.13623046875,0.063720703125,1.162353515625,32.25,164.9375,6.25,34.07421875
1554,-1.206787109375,0.078125,1.203369140625,39.0625,171.25,2.5625,34.07421875
1556,-1.206787109375,0.078125,1.203369140625,39.0625,171.25,2.5625,34.07421875
1558,-1.238525390625,0.10546875,1.27490234375,47.1875,174.5,1.625,34.07421875
1560,-1.238525390625,0.10546875,1.27490234375,47.1875,174.5,1.625,34.07421875
1562,-1.260986328125,0.12841796875,1.346923828125,57.125,176.4375,2.9375,34.07421875
1564,-1.260986328125,0.12841796875,1.346923828125,57.125,176.4375,2.9375,34.07421875
1566,-1.260986328125,0.150146484375,1.419921875,68.125,178.3125,4.125,34.07421875
1568,-1.2861328125,0.150146484375,1.419921875,68.125,178.3125,4.125,34.07421875
1570,-1.2861328125,0.150146484375,1.419921875,68.125,178.3125,4.125,34.07421875
1572,-1.305419921875,0.1748046875,1.494384765625,78.5,178.6875,6.25,34.07421875
1574,-1.305419921875,0.1748046875,1.494384765625,78.5,178.6875,6.25,34.07421875
1575,-1.31982421875,0.204833984375,1.56005859375,87.3125,178.3125,8.9375,34.07421875
1578,-1.31982421875,0.204833984375,1.56005859375,87.3125,178.3125,8.9375,34.07421875
1580,-1.328125,0.2451171875,1.617919921875,92.25,177.875,11.875,34.07421875
1584,-1.322021484375,0.293701171875,1.6669921875,90.75,175.4375,14.5625,34.07421875
1585,-1.322021484375,0.293701171875,1.6669921875,90.75,175.4375,14.5625,34.07421875
1587,-1.322021484375,0.293701171875,1.6669921875,90.75,175.4375,14.5625,34.07421875
1589,-1.30078125,0.340576171875,1.710205078125,83.9375,170.4375,17.9375,34.07421875
1591,-1.30078125,0.340576171875,1.710205078125,83.9375,170.4375,17.9375,34.07421875
1593,-1.275390625,0.366455078125,1.744140625,73.625,164.625,21.3125,34.07421875
1595,-1.275390625,0.366455078125,1.744140625,73.625,164.625,21.3125,34.07421875
1597,-1.2529296875,0.372802734375,1.758056640625,60.875,158.8125,23.875,34.07421875
1599,-1.2529296875,0.372802734375,1.758056640625,60.875,158.8125,23.875,34.07421875
1602,-1.235595703125,0.362060546875,1.74755859375,46.9375,153.75,26.625,34.07421875
1604,-1.235595703125,0.362060546875,1.74755859375,46.9375,153.75,26.625,34.07421875
1606,-1.226318359375,0.3251953125,1.7275390625,35.125,149.6875,29.5,34.07421875
1608,-1.226318359375,0.3251953125,1.7275390625,35.125,149.6875,29.5,34.07421875
1610,-1.226318359375,0.3251953125,1.7275390625,28.3125,147.5,32.125,34.07421875
1612,-1.232177734375,0.27783203125,1.710205078125,28.3125,147.5,32.125,34.07421875
1614,-1.232177734375,0.27783203125,1.710205078125,28.3125,147.5,32.125,34.07421875
1616,-1.254150390625,0.237060546875,1.69921875,26.5625,148.375,34.125,34.07421875
1618,-1.254150390625,0.237060546875,1.69921875,26.5625,148.375,34.125,34.07421875
1620,-1.298828125,0.22021484375,1.7041015625,28.25,151.6875,35.1875,34.07421875
1622,-1.298828125,0.22021484375,1.7041015625,28.25,151.6875,35.1875,34.07421875
1624,-1.352783203125,0.2294921875,1.7333984375,32.3125,156.6875,35.3125,34.07421875
1626,-1.352783203125,0.2294921875,1.7333984375,32.3125,156.6875,35.3125,34.07421875
1628,-1.40234375,0.251220703125,1.786865234375,36.8125,163.0625,35.1875,34.07421875
1630,-1.40234375,0.251220703125,1.786865234375,36.8125,163.0625,35.1875,34.07421875
1632,-1.40234375,0.251220703125,1.786865234375,36.8125,163.0625,35.25,34.07421875
1634,-1.434814453125,0.2646484375,1.858154296875,41.5,170.0,35.25,34.07421875
1636,-1.434814453125,0.2646484375,1.858154296875,41.5,170.0,35.25,34.07421875
1638,-1.45166015625,0.256591796875,1.9365234375,46.4375,175.875,36.0625,34.07421875
1639,-1.45166015625,0.256591796875,1.9365234375,46.4375,175.875,36.0625,34.07421875
1641,-1.465576171875,0.232177734375,2.02392578125,52.3125,179.4375,37.875,34.07421875
1643,-1.465576171875,0.232177734375,2.02392578125,52.3125,179.4375,37.875,34.07421875
1646,-1.4619140625,0.199462890625,2.110595703125,58.8125,180.9375,40.1875,34.07421875
1648,-1.4619140625,0.199462890625,2.110595703125,58.8125,180.9375,40.1875,34.07421875
1650,-1.4619140625,0.199462890625,2.110595703125,58.8125,180.9375,41.75,34.07421875
1651,-1.42626953125,0.166259765625,2.17919921875,64.1875,180.0625,41.75,34.07421875
1653,-1.42626953125,0.166259765625,2.17919921875,64.1875,180.0625,41.75,34.07421875
1655,-1.403076171875,0.147705078125,2.224853515625,67.8125,175.9375,43.9375,34.07421875
1657,-1.403076171875,0.147705078125,2.224853515625,67.8125,175.9375,43.9375,34.07421875
1659,-1.407958984375,0.143798828125,2.2587890625,69.125,166.8125,50.0,34.07421875
1661,-1.407958984375,0.143798828125,2.2587890625,69.125,166.8125,50.0,34.07421875
1663,-1.41064453125,0.143798828125,2.286865234375,68.5625,152.6875,57.8125,34.07421875
1665,-1.41064453125,0.143798828125,2.286865234375,68.5625,152.6875,57.8125,34.07421875
1668,-1.41064453125,0.138916015625,2.292724609375,66.9375,135.5625,63.5625,34.07421875
1670,-1.390625,0.138916015625,2.292724609375,66.9375,135.5625,63.5625,34.07421875
1673,-1.359619140625,0.123291015625,2.2568359375,64.25,117.4375,65.8125,34.07421875
1675,-1.359619140625,0.123291015625,2.2568359375,64.25,117.4375,65.8125,34.07421875
1677,-1.277099609375,0.0908203125,2.18505859375,56.875,100.75,65.0625,34.07421875
1679,-1.277099609375,0.0908203125,2.18505859375,56.875,100.75,65.0625,34.07421875
1681,-1.221435546875,0.044677734375,2.106201171875,46.75,84.8125,61.1875,34.078125
1683,-1.221435546875,0.044677734375,2.106201171875,46.75,84.8125,61.1875,34.078125
1685,-1.221435546875,0.044677734375,2.106201171875,46.75,84.8125,61.1875,34.078125
1687,-1.199951171875,-0.001953125,2.0126953125,35.8125,72.0,55.75,34.078125
1689,-1.199951171875,-0.001953125,2.0126953125,35.8125,72.0,55.75,34.078125
1691,-1.184814453125,-0.04345703125,1.923583984375,24.625,64.0625,49.875,34.078125
1693,-1.184814453125,-0.04345703125,1.923583984375,24.625,64.0625,49.875,34.078125
1695,-1.1513671875,-0.084228515625,1.845703125,15.1875,59.0625,43.0625,34.078125
1697,-1.1513671875,-0.084228515625,1.845703125,15.1875,59.0625,43.0625,34.078125
1699,-1.109619140625,-0.1171875,1.7900390625,8.25,55.875,35.4375,34.078125
1701,-1.109619140625,-0.1171875,1.7900390625,8.25,55.875,35.4375,34.078125
1703,-1.109619140625,-0.142333984375,1.75244140625,3.25,54.5625,27.1875,34.078125
1705,-1.07861328125,-0.142333984375,1.75244140625,3.25,54.5625,27.1875,34.078125
1707,-1.07861328125,-0.142333984375,1.75244140625,3.25,54.5625,19.4375,34.078125
1709,-1.05615234375,-0.16748046875,1.71875,-0.3125,54.9375,19.4375,34.078125
1711,-1.05615234375,-0.16748046875,1.71875,-0.3125,54.9375,19.4375,34.078125
1713,-1.041748046875,-0.200927734375,1.685302734375,-1.9375,55.5,12.125,34.078125
1715,-1.041748046875,-0.200927734375,1.685302734375,-1.9375,55.5,12.125,34.078125
1717,-1.0224609375,-0.23291015625,1.666748046875,-1.125,55.5625,4.5,34.078125
1719,-1.0224609375,-0.23291015625,1.666748046875,-1.125,55.5625,4.5,34.078125
1721,-0.99169921875,-0.245361328125,1.666015625,2.4375,54.4375,-3.375,34.078125
1723,-0.99169921875,-0.245361328125,1.666015625,2.4375,54.4375,-3.375,34.078125
1725,-0.99169921875,-0.245361328125,1.666015625,2.4375,52.0,-12.5625,34.078125
1727,-0.963623046875,-0.241943359375,1.676025390625,8.3125,52.0,-12.5625,34.078125
1729,-0.963623046875,-0.241943359375,1.676025390625,8.3125,52.0,-12.5625,34.078125
1731,-0.956787109375,-0.22265625,1.68212890625,14.0625,49.25,-21.9375,34.078125
1733,-0.956787109375,-0.22265625,1.68212890625,14.0625,49.25,-21.9375,34.078125
1735,-0.92724609375,-0.19580078125,1.681396484375,17.9375,45.6875,-28.8125,34.078125
1737,-0.92724609375,-0.19580078125,1.681396484375,17.9375,45.6875,-28.8125,34.078125
1739,-0.83837890625,-0.19091796875,1.6376953125,20.3125,46.4375,-40.25,34.078125
1741,-0.83837890625,-0.19091796875,1.6376953125,20.3125,46.4375,-40.25,34.078125
1743,-0.85986328125,-0.141845703125,1.597900390625,21.8125,45.4375,-46.3125,34.078125
1745,-0.85986328125,-0.141845703125,1.597900390625,21.8125,45.4375,-46.3125,34.078125
1747,-0.85986328125,-0.141845703125,1.597900390625,22.0625,39.625,-46.4375,34.078125
1749,-0.840576171875,-0.12255859375,1.589111328125,22.0625,39.625,-46.4375,34.078125
1751,-0.840576171875,-0.12255859375,1.589111328125,22.0625,39.625,-46.4375,34.078125
1753,-0.756103515625,-0.1142578125,1.564208984375,21.4375,39.125,-53.6875,34.078125
1755,-0.756103515625,-0.1142578125,1.564208984375,21.4375,39.125,-53.6875,34.078125
1757,-0.711669921875,-0.110595703125,1.495849609375,19.6875,43.1875,-63.1875,34.078125
1759,-0.711669921875,-0.110595703125,1.495849609375,19.6875,43.1875,-63.1875,34.078125
1761,-0.70068359375,-0.1220703125,1.43896484375,16.9375,46.9375,-68.8125,34.078125
1763,-0.70068359375,-0.1220703125,1.43896484375,16.9375,46.9375,-68.8125,34.078125
1765,-0.703369140625,-0.122802734375,1.400390625,15.1875,48.25,-71.25,34.078125
1767,-0.703369140625,-0.122802734375,1.400390625,15.1875,48.25,-71.25,34.078125
1769,-0.703369140625,-0.122802734375,1.400390625,15.1875,48.25,-71.25,34.078125
1771,-0.75927734375,-0.086181640625,1.354248046875,10.625,48.1875,-67.0,34.078125
1773,-0.75927734375,-0.086181640625,1.354248046875,10.625,48.1875,-67.0,34.078125
1776,-0.8662109375,-0.022705078125,1.343505859375,8.0,47.9375,-51.4375,34.078125
1779,-0.933349609375,0.0361328125,1.348388671875,8.9375,46.625,-30.8125,34.078125
1781,-0.933349609375,0.0361328125,1.348388671875,8.9375,46.625,-30.8125,34.078125
1784,-0.8984375,0.061767578125,1.388427734375,16.4375,43.25,-17.3125,34.078125
1786,-0.8984375,0.061767578125,1.388427734375,16.4375,43.25,-17.3125,34.078125
1788,-0.824951171875,0.060791015625,1.407958984375,29.0625,37.875,-16.0,34.078125
1790,-0.824951171875,0.060791015625,1.407958984375,29.0625,37.875,-16.0,34.078125
1792,-0.771240234375,0.04248046875,1.408203125,39.625,32.75,-22.6875,34.078125
1794,-0.771240234375,0.04248046875,1.408203125,39.625,32.75,-22.6875,34.078125
1796,-0.771240234375,0.04248046875,1.408203125,39.625,32.75,-22.6875,34.078125
1798,-0.744140625,0.025146484375,1.41455078125,43.8125,28.3125,-31.4375,34.078125
1800,-0.744140625,0.025146484375,1.41455078125,43.8125,28.3125,-31.4375,34.078125
1802,-0.73486328125,0.03564453125,1.407470703125,43.4375,22.8125,-39.375,34.078125
1804,-0.73486328125,0.03564453125,1.407470703125,43.4375,22.8125,-39.375,34.078125
1806,-0.729736328125,0.070556640625,1.388427734375,41.4375,15.5625,-45.4375,34.078125
1808,-0.729736328125,0.070556640625,1.388427734375,41.4375,15.5625,-45.4375,34.078125
1810,-0.71533203125,0.118408203125,1.3642578125,38.25,6.4375,-49.0,34.078125
1812,-0.71533203125,0.118408203125,1.3642578125,38.25,6.4375,-49.0,34.078125
1814,-0.668701171875,0.165771484375,1.349609375,33.5,-2.0,-50.8125,34.078125
1816,-0.668701171875,0.165771484375,1.349609375,33.5,-2.0,-50.8125,34.078125
1818,-0.668701171875,0.165771484375,1.349609375,33.5,-2.0,-51.5,34.078125
1820,-0.59423828125,0.20556640625,1.333251953125,26.625,-7.625,-51.5,34.078125
1822,-0.59423828125,0.20556640625,1.333251953125,26.625,-7.625,-51.5,34.078125
1824,-0.516845703125,0.23876953125,1.3037109375,19.8125,-10.3125,-51.125,34.09375
1825,-0.516845703125,0.23876953125,1.3037109375,19.8125,-10.3125,-51.125,34.09375
1828,-0.439697265625,0.265625,1.268310546875,13.5625,-10.375,-50.8125,34.09375
1830,-0.439697265625,0.265625,1.268310546875,13.5625,-10.375,-50.8125,34.09375
1832,-0.372802734375,0.2880859375,1.230224609375,6.375,-7.8125,-50.0,34.09375
1834,-0.372802734375,0.2880859375,1.230224609375,6.375,-7.8125,-50.0,34.09375
1836,-0.372802734375,0.2880859375,1.230224609375,6.375,-7.8125,-50.0,34.09375
1837,-0.320068359375,0.298828125,1.19189453125,-0.75,-2.4375,-47.0625,34.09375
1839,-0.320068359375,0.298828125,1.19189453125,-0.75,-2.4375,-47.0625,34.09375
1841,-0.26953125,0.30322265625,1.159423828125,-5.8125,3.5,-41.75,34.09375
1843,-0.26953125,0.30322265625,1.159423828125,-5.8125,3.5,-41.75,34.09375
1845,-0.232421875,0.294921875,1.132080078125,-7.875,8.8125,-35.875,34.09375
1847,-0.232421875,0.294921875,1.132080078125,-7.875,8.8125,-35.875,34.09375
1849,-0.1943359375,0.2783203125,1.1015625,-8.125,13.5625,-29.5,34.09375
1852,-0.1943359375,0.2783203125,1.1015625,-8.125,13.5625,-29.5,34.09375
1854,-0.14453125,0.258544921875,1.080078125,-6.9375,17.1875,-23.4375,34.09375
1855,-0.14453125,0.258544921875,1.080078125,-6.9375,17.1875,-23.4375,34.09375
1857,-0.14453125,0.258544921875,1.080078125,-6.9375,17.1875,-23.4375,34.09375
1859,-0.114501953125,0.2333984375,1.076416015625,-5.125,19.8125,-18.6875,34.09375
1861,-0.114501953125,0.2333984375,1.076416015625,-5.125,19.8125,-18.6875,34.09375
1863,-0.093017578125,0.211669921875,1.088134765625,-4.1875,22.625,-16.375,34.09375
1865,-0.093017578125,0.211669921875,1.088134765625,-4.1875,22.625,-16.375,34.09375
1867,-0.08154296875,0.18798828125,1.1015625,-4.3125,25.5,-16.4375,34.09375
1869,-0.08154296875,0.18798828125,1.1015625,-4.3125,25.5,-16.4375,34.09375
1871,-0.08154296875,0.18798828125,1.1015625,-4.3125,25.5,-16.4375,34.09375
1873,-0.0810546875,0.158935546875,1.105224609375,-4.875,27.0625,-17.875,34.09375
1875,-0.0810546875,0.158935546875,1.105224609375,-4.875,27.0625,-17.875,34.09375
1878,-0.065673828125,0.1337890625,1.1171875,-5.8125,25.6875,-18.75,34.09375
1880,-0.065673828125,0.1337890625,1.1171875,-5.8125,25.6875,-18.5625,34.09375
1882,-0.05078125,0.108642578125,1.10498046875,-6.5,20.625,-18.5625,34.09375
1884,-0.05078125,0.108642578125,1.10498046875,-6.5,20.625,-18.5625,34.09375
1886,-0.082763671875,0.10009765625,1.052001953125,-3.0625,19.6875,-20.875,34.09375
1888,-0.082763671875,0.10009765625,1.052001953125,-3.0625,19.6875,-20.875,34.09375
1889,-0.06494140625,0.1123046875,1.080322265625,-2.3125,19.1875,-23.75,34.09375
1891,-0.06494140625,0.1123046875,1.080322265625,-2.3125,19.1875,-23.75,34.09375
1893,-0.06494140625,0.1259765625,1.08642578125,-4.0,17.4375,-26.625,34.09375
1895,-0.02490234375,0.1259765625,1.08642578125,-4.0,17.4375,-26.625,34.09375
1897,-0.02490234375,0.1259765625,1.08642578125,-4.0,17.4375,-26.625,34.09375
1900,-0.00634765625,0.135009765625,1.0712890625,-6.5,16.0625,-29.5,34.09375
1902,-0.00634765625,0.135009765625,1.0712890625,-6.5,16.0625,-29.5,34.09375
1903,-0.003173828125,0.137451171875,1.04736328125,-8.875,15.3125,-31.375,34.09375
1905,-0.003173828125,0.137451171875,1.04736328125,-8.875,15.3125,-31.375,34.09375
1907,0.00146484375,0.14111328125,1.027587890625,-10.875,15.0,-32.5625,34.09375
1909,0.00146484375,0.14111328125,1.027587890625,-10.875,15.0,-32.5625,34.09375
1911,0.005615234375,0.14794921875,1.009521484375,-12.125,15.25,-33.5,34.09375
1913,0.005615234375,0.14794921875,1.009521484375,-12.125,15.25,-33.5,34.09375
1915,0.005615234375,0.14794921875,1.009521484375,-12.125,15.25,-33.5,34.09375
1917,0.00927734375,0.1533203125,0.98974609375,-12.9375,16.875,-34.3125,34.09375
1919,0.00927734375,0.1533203125,0.98974609375,-12.9375,16.875,-34.3125,34.09375
1921,0.0146484375,0.157958984375,0.969970703125,-13.1875,19.3125,-35.4375,34.09375
1923,0.0146484375,0.157958984375,0.969970703125,-13.1875,19.3125,-35.4375,34.09375
1925,0.018310546875,0.165283203125,0.953369140625,-13.0625,22.4375,-36.875,34.09375
1927,0.018310546875,0.165283203125,0.953369140625,-13.0625,22.4375,-36.875,34.09375
1929,0.0234375,0.173828125,0.946044921875,-12.75,25.25,-38.875,34.09375
1931,0.0234375,0.173828125,0.946044921875,-12.75,25.25,-38.875,34.09375
1933,0.0234375,0.183837890625,0.9462890625,-11.5,27.3125,-40.75,34.09375
1935,0.0263671875,0.183837890625,0.9462890625,-11.5,27.3125,-40.75,34.09375
1937,0.0263671875,0.183837890625,0.9462890625,-11.5,27.3125,-40.75,34.09375
1939,0.024169921875,0.19580078125,0.953369140625,-9.3125,28.625,-42.0625,34.09375
1941,0.024169921875,0.19580078125,0.953369140625,-9.3125,28.625,-42.0625,34.09375
1943,0.017578125,0.206298828125,0.95556640625,-6.3125,29.125,-42.6875,34.09375
1945,0.017578125,0.206298828125,0.95556640625,-6.3125,29.125,-42.6875,34.09375
1947,0.0146484375,0.2119140625,0.95751953125,-2.8125,28.75,-42.4375,34.09375
1949,0.0146484375,0.2119140625,0.95751953125,-2.8125,28.75,-42.4375,34.09375
1952,0.0205078125,0.2119140625,0.956298828125,1.125,27.8125,-41.125,34.09375
1954,0.0205078125,0.2119140625,0.956298828125,1.125,27.8125,-41.125,34.09375
1956,0.028076171875,0.21337890625,0.947265625,5.5625,25.8125,-39.1875,34.09375
1958,0.028076171875,0.21337890625,0.947265625,5.5625,25.8125,-39.1875,34.09375
1960,0.028076171875,0.219482421875,0.93994140625,9.8125,23.4375,-36.875,34.09375
1962,0.0390625,0.219482421875,0.93994140625,9.8125,23.4375,-36.875,34.09375
1964,0.0390625,0.219482421875,0.93994140625,9.8125,23.4375,-36.875,34.09375
1966,0.0556640625,0.230712890625,0.940673828125,11.8125,21.5625,-34.5625,34.0546875
1968,0.0556640625,0.230712890625,0.940673828125,11.8125,21.5625,-34.5625,34.0546875
1970,0.072998046875,0.24365234375,0.941650390625,11.0625,20.625,-32.875,34.0546875
1972,0.072998046875,0.24365234375,0.941650390625,11.0625,20.625,-32.875,34.0546875
1974,0.089599609375,0.255859375,0.933349609375,7.4375,21.0625,-31.6875,34.0546875
1976,0.089599609375,0.255859375,0.933349609375,7.4375,21.0625,-31.6875,34.0546875
1978,0.101806640625,0.259765625,0.92724609375,2.5625,21.9375,-30.5,34.0546875
1980,0.101806640625,0.259765625,0.92724609375,2.5625,21.9375,-30.5,34.0546875
1982,0.101806640625,0.259765625,0.92724609375,2.5625,21.9375,-30.5,34.0546875
1983,0.109619140625,0.2587890625,0.93212890625,-2.6875,22.375,-28.875,34.0546875
1986,0.109619140625,0.2587890625,0.93212890625,-2.6875,22.375,-28.875,34.0546875
1989,0.114990234375,0.260009765625,0.942626953125,-7.4375,22.125,-27.0625,34.0546875
1991,0.114990234375,0.260009765625,0.942626953125,-7.4375,21.375,-25.1875,34.0546875
1993,0.121337890625,0.260498046875,0.953125,-11.4375,21.375,-25.1875,34.0546875
1995,0.123291015625,0.2568359375,0.953857421875,-14.0625,19.8125,-23.125,34.0546875
1997,0.123291015625,0.2568359375,0.953857421875,-14.0625,19.8125,-23.125,34.0546875
1999,0.123291015625,0.2568359375,0.953857421875,-14.0625,19.8125,-23.125,34.0546875
2001,0.119384765625,0.255615234375,0.9443359375,-15.25,17.125,-21.0625,34.0546875
2003,0.119384765625,0.255615234375,0.9443359375,-15.25,17.125,-21.0625,34.0546875
2005,0.112060546875,0.243408203125,0.933837890625,-14.75,13.1875,-18.5625,34.0546875
2007,0.112060546875,0.243408203125,0.933837890625,-14.75,13.1875,-18.5625,34.0546875
2009,0.101806640625,0.22705078125,0.908203125,-12.0625,7.9375,-16.4375,34.0546875
2011,0.101806640625,0.22705078125,0.908203125,-12.0625,7.9375,-16.4375,34.0546875
2013,0.101806640625,0.22705078125,0.908203125,-12.0625,7.9375,-0.4375,34.0546875
2015,0.079833984375,0.227294921875,0.874755859375,-8.0,2.1875,-12.625,34.0546875
2017,0.079833984375,0.227294921875,0.874755859375,-8.0,-13.8125,-6.8125,34.0546875
2019,0.064453125,0.234619140625,0.845458984375,-3.5,-3.4375,-6.8125,34.0546875
2022,0.064453125,0.234619140625,0.845458984375,-3.5,-3.4375,-6.8125,34.0546875
2025,0.06298828125,0.243896484375,0.823974609375,0.25,-8.375,-2.75,34.0546875
2027,0.06689453125,0.25341796875,0.80419921875,2.1875,-10.4375,-1.0625,34.0546875
2029,0.06689453125,0.25341796875,0.80419921875,2.1875,-10.4375,-1.0625,34.0546875
2031,0.06689453125,0.25341796875,0.784912109375,0.6875,-8.5,-0.3125,34.0546875
2033,0.072509765625,0.263427734375,0.784912109375,0.6875,-8.5,-0.3125,34.0546875
2035,0.072509765625,0.263427734375,0.784912109375,0.6875,-8.5,-0.3125,34.0546875
2037,0.071044921875,0.2724609375,0.77001953125,-4.375,-4.1875,0.75,34.0546875
2039,0.071044921875,0.2724609375,0.77001953125,-4.375,-4.1875,0.75,34.0546875
2041,0.05810546875,0.282470703125,0.765625,-12.4375,1.5625,1.875,34.0546875
2043,0.05810546875,0.282470703125,0.765625,-12.4375,1.5625,1.875,34.0546875
2045,0.031494140625,0.28857421875,0.7783203125,-21.125,6.625,2.25,34.0546875
2047,0.031494140625,0.28857421875,0.7783203125,-21.125,6.625,2.25,34.0546875
2049,0.001220703125,0.28662109375,0.80810546875,-28.0,10.5625,1.4375,34.0546875
2051,0.001220703125,0.28662109375,0.80810546875,-28.0,10.5625,1.4375,34.0546875
2053,-0.022705078125,0.27783203125,0.849365234375,-32.5625,13.375,-0.3125,34.0546875
2055,-0.022705078125,0.27783203125,0.849365234375,-32.5625,13.375,-0.3125,34.0546875
2058,-0.04150390625,0.269287109375,0.894775390625,-34.4375,14.625,-2.1875,34.0546875
2060,-0.04150390625,0.269287109375,0.894775390625,-34.4375,14.625,-2.1875,34.0546875
2062,-0.05859375,0.266357421875,0.943603515625,-32.875,14.25,-3.0625,34.0546875
2064,-0.05859375,0.266357421875,0.943603515625,-32.875,14.25,-3.0625,34.0546875
2067,-0.072509765625,0.2685546875,0.99462890625,-27.9375,12.625,-3.6875,34.0546875
2069,-0.072509765625,0.2685546875,0.99462890625,-27.9375,12.625,-3.6875,34.0546875
2071,-0.072509765625,0.275634765625,1.060302734375,-21.0,9.75,-4.3125,34.0546875
2073,-0.093505859375,0.275634765625,1.060302734375,-21.0,9.75,-4.3125,34.0546875
2075,-0.093505859375,0.275634765625,1.060302734375,-21.0,9.75,-4.3125,34.0546875
2076,-0.119873046875,0.287353515625,1.141357421875,-14.5,6.6875,-4.0,34.0546875
2078,-0.119873046875,0.287353515625,1.141357421875,-14.5,6.6875,-4.0,34.0546875
2080,-0.15087890625,0.296875,1.22265625,-10.25,3.25,-2.625,34.0546875
2082,-0.15087890625,0.296875,1.22265625,-10.25,3.25,-2.625,34.0546875
2084,-0.19970703125,0.28955078125,1.301513671875,-8.1875,-0.3125,0.25,34.0546875
2087,-0.19970703125,0.28955078125,1.301513671875,-8.1875,-0.3125,0.25,34.0546875
2089,-0.21044921875,0.2724609375,1.37060546875,-8.6875,-3.875,5.0,34.0546875
2092,-0.21044921875,0.2724609375,1.37060546875,-8.6875,-3.875,5.0,34.0546875
2095,-0.23291015625,0.248291015625,1.451416015625,-11.4375,-7.8125,9.5625,34.0546875
2097,-0.23291015625,0.248291015625,1.451416015625,-11.4375,-7.8125,9.5625,34.0546875
2099,-0.294677734375,0.22412109375,1.541259765625,-16.375,-11.0625,13.625,34.0546875
2101,-0.294677734375,0.22412109375,1.541259765625,-16.375,-11.0625,13.625,34.0546875
2103,-0.36279296875,0.203369140625,1.63037109375,-25.0,-13.5625,17.125,34.0546875
2105,-0.36279296875,0.203369140625,1.63037109375,-25.0,-13.5625,17.125,34.0546875
2107,-0.431884765625,0.18408203125,1.70947265625,-36.5,-16.625,20.0625,34.06640625
2109,-0.431884765625,0.18408203125,1.70947265625,-36.5,-16.625,20.0625,34.06640625
2111,-0.490966796875,0.1572265625,1.7802734375,-49.125,-20.4375,23.0625,34.06640625
2113,-0.490966796875,0.1572265625,1.7802734375,-49.125,-20.4375,23.0625,34.06640625
2115,-0.54638671875,0.125,1.84130859375,-61.375,-25.0,25.75,34.06640625
2118,-0.54638671875,0.125,1.84130859375,-61.375,-25.0,25.75,34.06640625
2119,-0.620361328125,0.0927734375,1.8896484375,-72.4375,-30.0625,28.0625,34.06640625
2121,-0.620361328125,0.0927734375,1.8896484375,-72.4375,-30.0625,28.0625,34.06640625
2123,-0.620361328125,0.0927734375,1.8896484375,-72.4375,-30.0625,28.0625,34.06640625
2125,-0.71923828125,0.069091796875,1.91845703125,-80.875,-36.5,29.25,34.06640625
2127,-0.71923828125,0.069091796875,1.91845703125,-80.875,-36.5,29.25,34.06640625
2129,-0.827392578125,0.050048828125,1.9287109375,-86.625,-45.0625,30.0,34.06640625
2131,-0.827392578125,0.050048828125,1.9287109375,-86.625,-45.0625,30.0,34.06640625
2133,-0.94091796875,0.032470703125,1.91796875,-88.375,-56.5625,30.625,34.06640625
2135,-0.94091796875,0.032470703125,1.91796875,-88.375,-56.5625,30.625,34.06640625
2138,-1.048828125,0.01318359375,1.875,-84.6875,-67.125,30.75,34.06640625
2139,-1.048828125,0.01318359375,1.875,-84.6875,-67.125,30.75,34.06640625
2141,-1.128662109375,-0.017822265625,1.80419921875,-76.375,-70.9375,31.0625,34.06640625
2143,-1.128662109375,-0.017822265625,1.80419921875,-76.375,-70.9375,31.0625,34.06640625
2145,-1.128662109375,-0.017822265625,1.80419921875,-76.375,-70.9375,31.0625,34.06640625
2147,-1.20361328125,-0.04931640625,1.7685546875,-65.75,-71.1875,30.75,34.06640625
2149,-1.20361328125,-0.04931640625,1.7685546875,-65.75,-71.1875,30.75,34.06640625
2151,-1.296142578125,-0.05322265625,1.768798828125,-53.8125,-73.375,30.3125,34.06640625
2153,-1.296142578125,-0.05322265625,1.768798828125,-53.8125,-73.375,30.3125,34.06640625
2155,-1.394287109375,-0.037109375,1.80810546875,-40.75,-73.5,29.625,34.06640625
2157,-1.394287109375,-0.037109375,1.80810546875,-40.75,-73.5,29.625,34.06640625
2160,-1.464111328125,-0.012451171875,1.854736328125,-28.5,-71.9375,28.9375,34.06640625
2162,-1.464111328125,-0.012451171875,1.854736328125,-28.5,-71.9375,28.9375,34.06640625
2166,-1.51611328125,0.004150390625,1.890380859375,-17.625,-70.0625,28.125,34.06640625
2168,-1.51611328125,-0.058349609375,1.915771484375,-6.9375,-67.6875,28.0,34.06640625
2170,-1.58544921875,-0.009033203125,1.915771484375,-6.9375,-67.6875,28.0,34.06640625
2172,-1.58544921875,-0.009033203125,1.915771484375,-6.9375,-67.6875,28.0,34.06640625
2174,-1.6767578125,-0.03955078125,1.933349609375,2.6875,-64.6875,28.6875,34.06640625
2176,-1.6767578125,-0.03955078125,1.933349609375,2.6875,-64.6875,28.6875,34.06640625
2178,-1.758544921875,-0.039794921875,1.973388671875,9.5625,-61.0625,28.9375,34.06640625
2179,-1.758544921875,-0.039794921875,1.973388671875,9.5625,-61.0625,28.9375,34.06640625
2181,-1.805419921875,-0.007568359375,2.05615234375,11.625,-56.375,28.0,34.06640625
2184,-1.805419921875,-0.007568359375,2.05615234375,11.625,-56.375,28.0,34.06640625
2186,-1.8310546875,0.03173828125,2.16162109375,8.0625,-50.625,26.3125,34.06640625
2188,-1.8310546875,0.03173828125,2.16162109375,8.0625,-50.625,26.3125,34.06640625
2190,-1.8310546875,0.03173828125,2.16162109375,8.0625,-50.625,26.3125,34.06640625
2192,-1.86962890625,0.06787109375,2.263427734375,1.1875,-47.9375,25.1875,34.06640625
2194,-1.86962890625,0.06787109375,2.263427734375,1.1875,-47.9375,25.1875,34.06640625
2196,-1.928955078125,0.098388671875,2.36279296875,-7.0625,-51.0,25.375,34.06640625
2198,-1.928955078125,0.098388671875,2.36279296875,-7.0625,-51.0,25.375,34.06640625
2200,-1.99462890625,0.11767578125,2.446044921875,-16.375,-60.0,26.1875,34.06640625
2202,-1.99462890625,0.11767578125,2.446044921875,-16.375,-60.0,26.1875,34.06640625
2203,-1.99462890625,0.18017578125,2.467529296875,-26.5,-73.6875,27.4375,34.06640625
2206,-2.04736328125,0.12744140625,2.467529296875,-26.5,-73.6875,27.4375,34.06640625
2208,-2.081787109375,0.1279296875,2.46630859375,-37.0,-90.5625,28.5,34.06640625
2210,-2.081787109375,0.1279296875,2.46630859375,-37.0,-90.5625,28.5,34.06640625
2212,-2.081787109375,0.1279296875,2.46630859375,-37.0,-90.5625,28.5,34.06640625
2214,-2.097900390625,0.10791015625,2.462890625,-46.5625,-109.6875,29.8125,34.06640625
2216,-2.097900390625,0.10791015625,2.462890625,-46.5625,-109.6875,29.8125,34.06640625
2218,-2.111083984375,0.078125,2.42138671875,-54.25,-129.75,31.625,34.06640625
2219,-2.111083984375,0.078125,2.42138671875,-54.25,-129.75,31.625,34.06640625
2221,-2.121337890625,0.05078125,2.33349609375,-59.75,-150.3125,34.3125,34.06640625
2223,-2.121337890625,0.05078125,2.33349609375,-59.75,-150.3125,34.3125,34.06640625
2225,-2.121337890625,0.05078125,2.33349609375,-59.75,-150.3125,34.3125,34.06640625
2228,-2.118896484375,0.02685546875,2.248046875,-62.75,-171.1875,38.0,34.06640625
2230,-2.118896484375,0.02685546875,2.248046875,-62.75,-171.1875,38.0,34.06640625
2232,-2.10498046875,0.008544921875,2.157470703125,-63.625,-192.1875,41.9375,34.06640625
2235,-2.0703125,-0.00927734375,2.051513671875,-62.6875,-211.9375,45.8125,34.06640625
2237,-2.0703125,-0.00927734375,2.051513671875,-62.6875,-211.9375,45.8125,34.06640625
2239,-2.016357421875,-0.034423828125,1.927001953125,-60.3125,-229.3125,49.9375,34.06640625
2241,-2.016357421875,-0.034423828125,1.927001953125,-60.3125,-229.3125,49.9375,34.06640625
2243,-2.016357421875,-0.034423828125,1.927001953125,-60.3125,-229.3125,49.9375,34.06640625
2245,-1.956298828125,-0.060302734375,1.7978515625,-56.9375,-242.8125,53.375,34.06640625
2247,-1.956298828125,-0.060302734375,1.7978515625,-56.9375,-242.8125,53.375,34.06640625
2249,-1.89501953125,-0.07861328125,1.682373046875,-52.5,-251.5625,55.375,34.07421875
2251,-1.89501953125,-0.07861328125,1.682373046875,-52.5,-251.5625,55.375,34.07421875
2253,-1.83056640625,-0.088623046875,1.58203125,-47.125,-256.0625,56.125,34.07421875
2255,-1.83056640625,-0.088623046875,1.58203125,-47.125,-256.0625,56.125,34.07421875
2257,-1.74951171875,-0.09521484375,1.494384765625,-40.75,-257.25,55.9375,34.07421875
2259,-1.74951171875,-0.09521484375,1.494384765625,-40.75,-257.25,55.9375,34.07421875
2263,-1.671142578125,-0.105712890625,1.424072265625,-33.3125,-255.5625,54.6875,34.07421875
2265,-1.671142578125,-0.105712890625,1.424072265625,-33.3125,-255.5625,54.6875,34.07421875
2267,-1.62939453125,-0.109375,1.36474609375,-25.3125,-250.875,53.1875,34.07421875
2269,-1.62939453125,-0.109375,1.36474609375,-25.3125,-250.875,53.1875,34.07421875
2271,-1.606201171875,-0.097900390625,1.304931640625,-18.4375,-243.6875,51.8125,34.07421875
2273,-1.606201171875,-0.097900390625,1.304931640625,-18.4375,-243.6875,51.8125,34.07421875
2276,-1.588623046875,-0.080078125,1.243408203125,-12.1875,-234.375,50.0,34.07421875
2278,-1.588623046875,-0.080078125,1.243408203125,-12.1875,-234.375,50.0,34.07421875
2279,-1.56787109375,-0.067138671875,1.189697265625,-6.375,-223.875,47.9375,34.07421875
2281,-1.56787109375,-0.067138671875,1.189697265625,-6.375,-223.875,47.9375,34.07421875
2283,-1.559326171875,-0.0712890625,1.1513671875,-3.375,-212.0,45.75,34.07421875
2285,-1.559326171875,-0.0712890625,1.1513671875,-3.375,-212.0,45.75,34.07421875
2287,-1.559326171875,-0.0712890625,1.1513671875,-3.375,-212.0,45.75,34.07421875
2290,-1.5810546875,-0.10693359375,1.128662109375,-4.4375,-199.5,41.5,34.07421875
2292,-1.5810546875,-0.10693359375,1.128662109375,-4.4375,-199.5,41.5,34.07421875
2293,-1.62255859375,-0.166748046875,1.113037109375,-9.5,-186.9375,32.1875,34.07421875
2295,-1.62255859375,-0.166748046875,1.113037109375,-9.5,-186.9375,32.1875,34.07421875
2298,-1.659423828125,-0.21240234375,1.115966796875,-17.5625,-177.1875,16.9375,34.07421875
2300,-1.659423828125,-0.21240234375,1.115966796875,-17.5625,-177.1875,16.9375,34.07421875
2302,-1.6796875,-0.218017578125,1.15966796875,-28.5625,-170.625,-2.6875,34.07421875
2304,-1.6796875,-0.218017578125,1.15966796875,-28.5625,-170.625,-2.6875,34.07421875
2306,-1.679931640625,-0.19091796875,1.23095703125,-40.0,-167.1875,-23.8125,34.07421875
2308,-1.679931640625,-0.19091796875,1.23095703125,-40.0,-167.1875,-23.8125,34.07421875
2310,-1.679931640625,-0.12841796875,1.304443359375,-49.8125,-166.9375,-44.1875,34.07421875
2312,-1.655517578125,-0.138427734375,1.304443359375,-49.8125,-166.9375,-44.1875,34.07421875
2314,-1.655517578125,-0.138427734375,1.304443359375,-49.8125,-166.9375,-44.1875,34.07421875
2315,-1.620361328125,-0.0712890625,1.354736328125,-58.5,-170.0625,-61.125,34.07421875
2317,-1.620361328125,-0.0712890625,1.354736328125,-58.5,-170.0625,-61.125,34.07421875
2320,-1.62646484375,-0.0400390625,1.33740234375,-69.625,-176.25,-71.375,34.07421875
2322,-1.62646484375,-0.0400390625,1.33740234375,-69.625,-176.25,-71.375,34.07421875
2324,-1.666015625,-0.033203125,1.26611328125,-86.4375,-189.5625,-70.5,34.07421875
2326,-1.666015625,-0.033203125,1.26611328125,-86.4375,-189.5625,-70.5,34.07421875
2328,-1.55078125,0.0615234375,1.35888671875,-98.1875,-210.875,-65.5625,34.07421875
2331,-1.55078125,0.0615234375,1.35888671875,-98.1875,-210.875,-65.5625,34.07421875
2334,-1.357666015625,0.142333984375,1.3505859375,-98.5,-204.8125,-57.875,34.07421875
2336,-1.357666015625,0.142333984375,1.3505859375,-98.5,-204.8125,-57.875,34.07421875
2340,-1.281494140625,-0.064453125,1.2724609375,-98.75,-199.4375,-111.875,34.07421875
2342,-1.301025390625,-0.24169921875,1.12890625,-102.4375,-196.25,-170.8125,34.07421875
2344,-1.301025390625,-0.24169921875,1.12890625,-102.4375,-196.25,-170.8125,34.07421875
2346,-1.275390625,-0.387939453125,0.963134765625,-116.375,-174.3125,-182.0,34.07421875
2348,-1.275390625,-0.387939453125,0.963134765625,-116.375,-174.3125,-182.0,34.07421875
2350,-1.28076171875,-0.444091796875,0.74609375,-126.4375,-147.8125,-164.5625,34.07421875
2352,-1.28076171875,-0.444091796875,0.74609375,-126.4375,-147.8125,-164.5625,34.07421875
2354,-1.28076171875,-0.444091796875,0.74609375,-126.4375,-147.8125,-164.5625,34.07421875
2356,-1.30615234375,-0.33984375,0.5361328125,-118.1875,-123.625,-131.25,34.07421875
2358,-1.30615234375,-0.33984375,0.5361328125,-118.1875,-123.625,-131.25,34.07421875
2360,-1.269775390625,-0.186279296875,0.45947265625,-98.1875,-102.9375,-87.875,34.07421875
2362,-1.269775390625,-0.186279296875,0.45947265625,-98.1875,-102.9375,-87.875,34.07421875
2364,-1.176513671875,-0.070068359375,0.43115234375,-74.625,-96.625,-53.3125,34.07421875
2366,-1.176513671875,-0.070068359375,0.43115234375,-74.625,-96.625,-53.3125,34.07421875
2368,-1.109619140625,-0.01416015625,0.4052734375,-48.875,-105.0,-36.0,34.07421875
2370,-1.109619140625,-0.01416015625,0.4052734375,-48.875,-105.0,-36.0,34.07421875
2372,-1.078125,-0.017333984375,0.376708984375,-23.75,-120.875,-31.625,34.07421875
2374,-1.078125,-0.017333984375,0.376708984375,-23.75,-120.875,-31.625,34.07421875
2376,-1.078125,-0.017333984375,0.376708984375,-23.75,-120.875,-31.625,34.07421875
2378,-1.0625,-0.037841796875,0.33203125,-3.6875,-141.25,-30.25,34.07421875
2379,-1.0625,-0.037841796875,0.33203125,-3.6875,-141.25,-30.25,34.07421875
2381,-1.057861328125,-0.03759765625,0.287841796875,12.0625,-164.4375,-26.5625,34.07421875
2383,-1.057861328125,-0.03759765625,0.287841796875,12.0625,-164.4375,-26.5625,34.07421875
2385,-1.054931640625,-0.015380859375,0.2490234375,23.0,-191.125,-21.6875,34.07421875
2387,-1.054931640625,-0.015380859375,0.2490234375,23.0,-191.125,-21.6875,34.07421875
2390,-1.042724609375,0.01025390625,0.220458984375,30.0625,-215.625,-18.0625,34.09375
2392,-1.042724609375,0.01025390625,0.220458984375,30.0625,-215.625,-18.0625,34.09375
2394,-1.042724609375,0.01025390625,0.220458984375,30.0625,-215.625,-18.0625,34.09375
2396,-1.01025390625,0.0322265625,0.208740234375,32.75,-233.5625,-20.25,34.09375
2397,-1.01025390625,0.0322265625,0.208740234375,32.75,-233.5625,-20.25,34.09375
2399,-0.968994140625,0.0546875,0.1943359375,32.5625,-242.9375,-27.6875,34.09375
2401,-0.968994140625,0.0546875,0.1943359375,32.5625,-242.9375,-27.6875,34.09375
2403,-0.92578125,0.080078125,0.163330078125,29.625,-244.0,-35.0,34.09375
2405,-0.92578125,0.080078125,0.163330078125,29.625,-244.0,-35.0,34.09375
2407,-0.92578125,0.080078125,0.163330078125,29.625,-239.125,-40.125,34.09375
2409,-0.88916015625,0.1201171875,0.125732421875,23.6875,-239.125,-40.125,34.09375
2412,-0.88916015625,0.1201171875,0.083740234375,16.0,-230.9375,-44.5,34.09375
2414,-0.8623046875,0.17431640625,0.083740234375,16.0,-230.9375,-44.5,34.09375
2415,-0.8623046875,0.17431640625,0.083740234375,16.0,-230.9375,-44.5,34.09375
2417,-0.830322265625,0.243408203125,0.046142578125,6.9375,-221.3125,-49.875,34.09375
2419,-0.830322265625,0.243408203125,0.046142578125,6.9375,-221.3125,-49.875,34.09375
2421,-0.779052734375,0.31494140625,0.0263671875,-4.25,-211.75,-56.3125,34.09375
2423,-0.779052734375,0.31494140625,0.0263671875,-4.25,-211.75,-56.3125,34.09375
2425,-0.7216796875,0.384521484375,0.00634765625,-17.5625,-203.0,-61.875,34.09375
2427,-0.7216796875,0.384521484375,0.00634765625,-17.5625,-203.0,-61.875,34.09375
2429,-0.7216796875,0.384521484375,0.00634765625,-17.5625,-203.0,-61.875,34.09375
2431,-0.678466796875,0.442138671875,-0.0224609375,-32.625,-195.625,-65.125,34.09375
2433,-0.678466796875,0.442138671875,-0.0224609375,-32.625,-195.625,-65.125,34.09375
2435,-0.646484375,0.474853515625,-0.04638671875,-47.3125,-188.8125,-65.375,34.09375
2437,-0.646484375,0.474853515625,-0.04638671875,-47.3125,-188.8125,-65.375,34.09375
2439,-0.61865234375,0.475830078125,-0.05322265625,-59.0,-181.9375,-64.0625,34.09375
2441,-0.61865234375,0.475830078125,-0.05322265625,-59.0,-181.9375,-64.0625,34.09375
2443,-0.59765625,0.45263671875,-0.035888671875,-65.9375,-174.9375,-62.375,34.09375
2445,-0.59765625,0.45263671875,-0.035888671875,-65.9375,-174.9375,-62.375,34.09375
2447,-0.59765625,0.39013671875,-0.015869140625,-66.0625,-169.8125,-60.0625,34.09375
2449,-0.587646484375,0.415283203125,-0.015869140625,-66.0625,-169.8125,-60.0625,34.09375
2451,-0.587646484375,0.415283203125,-0.015869140625,-66.0625,-169.8125,-60.0625,34.09375
2453,-0.58203125,0.385009765625,-0.01513671875,-60.5,-167.25,-56.375,34.09375
2455,-0.58203125,0.385009765625,-0.01513671875,-60.5,-167.25,-56.375,34.09375
2457,-0.587890625,0.373046875,-0.034912109375,-52.375,-165.9375,-51.5625,34.09375
2459,-0.587890625,0.373046875,-0.034912109375,-52.375,-165.9375,-51.5625,34.09375
2461,-0.601806640625,0.368896484375,-0.060302734375,-43.25,-164.5,-45.4375,34.09375
2463,-0.601806640625,0.368896484375,-0.060302734375,-43.25,-164.5,-45.4375,34.09375
2465,-0.612548828125,0.35595703125,-0.0751953125,-32.125,-162.0625,-38.625,34.09375
2468,-0.612548828125,0.35595703125,-0.0751953125,-32.125,-162.0625,-38.625,34.09375
2470,-0.6201171875,0.325927734375,-0.07666015625,-17.875,-159.4375,-31.1875,34.09375
2472,-0.6201171875,0.325927734375,-0.07666015625,-17.875,-159.4375,-31.1875,34.09375
2474,-0.611328125,0.297119140625,-0.067626953125,-1.1875,-156.3125,-22.75,34.09375
2476,-0.611328125,0.297119140625,-0.067626953125,-1.1875,-156.3125,-22.75,34.09375
2479,-0.570068359375,0.272705078125,-0.060302734375,15.0,-151.8125,-13.5625,34.09375
2481,-0.570068359375,0.272705078125,-0.060302734375,15.0,-151.8125,-13.5625,34.09375
2483,-0.520263671875,0.25732421875,-0.063720703125,28.8125,-144.8125,-4.6875,34.09375
2485,-0.520263671875,0.25732421875,-0.063720703125,28.8125,-144.8125,-4.6875,34.09375
2487,-0.520263671875,0.25732421875,-0.063720703125,28.8125,-144.8125,-4.6875,34.09375
2489,-0.479736328125,0.244384765625,-0.07275390625,39.4375,-135.0625,2.6875,34.09375
2491,-0.479736328125,0.244384765625,-0.07275390625,39.4375,-135.0625,2.6875,34.09375
2493,-0.4521484375,0.224609375,-0.0771484375,48.125,-124.0625,7.75,34.09375
2495,-0.4521484375,0.224609375,-0.0771484375,48.125,-124.0625,7.75,34.09375
2497,-0.433837890625,0.20654296875,-0.06005859375,55.5,-112.9375,10.25,34.09375
2499,-0.433837890625,0.20654296875,-0.06005859375,55.5,-112.9375,10.25,34.09375
2508,-0.3505859375,0.138916015625,-0.0146484375,64.875,-95.4375,10.1875,34.09375
2509,-0.3505859375,0.138916015625,-0.0146484375,64.875,-95.4375,10.1875,34.09375
2511,-0.31298828125,0.126220703125,0.021484375,66.9375,-89.875,8.5625,34.09375
2513,-0.31298828125,0.126220703125,0.021484375,66.9375,-89.875,8.5625,34.09375
2516,-0.273193359375,0.140380859375,0.063720703125,65.875,-85.625,4.875,34.09375
2519,-0.273193359375,0.140380859375,0.063720703125,65.875,-85.625,4.875,34.09375
2521,-0.21923828125,0.172119140625,0.093017578125,61.125,-81.5,1.375,34.09375
2523,-0.16015625,0.204833984375,0.105712890625,52.8125,-77.125,-1.4375,34.09375
2525,-0.16015625,0.204833984375,0.105712890625,52.8125,-77.125,-1.4375,34.09375
2528,-0.10791015625,0.228759765625,0.111328125,41.25,-73.625,-3.5625,34.09375
2531,-0.10791015625,0.228759765625,0.111328125,41.25,-73.625,-3.5625,34.09375
2533,-0.0703125,0.23681640625,0.114501953125,26.9375,-72.0625,-5.25,34.0859375
2536,-0.0703125,0.23681640625,0.12451171875,11.375,-71.5,-5.9375,34.0859375
2541,-0.04736328125,0.224609375,0.12451171875,11.375,-71.5,-5.9375,34.0859375
2542,-0.02978515625,0.203125,0.137939453125,-3.125,-71.3125,-4.8125,34.0859375
2545,-0.02978515625,0.172607421875,0.138427734375,-13.8125,-69.6875,-2.6875,34.0859375
2546,-0.010498046875,0.172607421875,0.138427734375,-13.8125,-69.6875,-2.6875,34.0859375
2550,-0.010498046875,0.172607421875,0.138427734375,-13.8125,-69.6875,-2.6875,34.0859375
2552,0.005126953125,0.143310546875,0.130615234375,-19.8125,-67.1875,-2.5625,34.0859375
2554,0.01611328125,0.109619140625,0.118896484375,-22.5,-65.3125,-2.9375,34.0859375
2556,0.01611328125,0.109619140625,0.118896484375,-22.5,-65.3125,-2.9375,34.0859375
2559,0.01611328125,0.109619140625,0.118896484375,-22.5,-65.3125,-2.9375,34.0859375
2562,0.0166015625,0.063720703125,0.1201171875,-22.375,-63.25,-1.6875,34.0859375
2564,0.021728515625,0.013671875,0.128173828125,-18.75,-60.5625,1.375,34.0859375
2568,0.021728515625,0.013671875,0.128173828125,-18.75,-60.5625,1.375,34.0859375
2570,0.041015625,-0.02587890625,0.142578125,-12.125,-58.4375,4.75,34.0859375
2572,0.06494140625,-0.053466796875,0.1640625,-3.6875,-56.6875,7.25,34.0859375
2574,0.06494140625,-0.053466796875,0.1640625,-3.6875,-56.6875,7.25,34.0859375
2577,0.094970703125,-0.07177734375,0.1875,5.0625,-54.5,7.125,34.0859375
2580,0.094970703125,-0.07177734375,0.1875,5.0625,-54.5,7.125,34.0859375
2582,0.13134765625,-0.068359375,0.20654296875,12.375,-52.0625,5.0625,34.0859375
2584,0.13134765625,-0.068359375,0.20654296875,12.375,-52.0625,5.0625,34.0859375
2586,0.167724609375,-0.046875,0.215087890625,17.0,-49.6875,1.6875,34.0859375
2588,0.167724609375,-0.046875,0.215087890625,17.0,-49.6875,1.6875,34.0859375
2593,0.196044921875,-0.021484375,0.220947265625,18.25,-43.0,-4.875,34.0859375
2595,0.231201171875,-0.001220703125,0.225830078125,16.4375,-43.0,-4.875,34.0859375
2597,0.231201171875,-0.001220703125,0.225830078125,16.4375,-43.0,-4.875,34.0859375
2601,0.273681640625,0.011474609375,0.23388671875,12.1875,-38.9375,-8.1875,34.0859375
2603,0.3173828125,0.023681640625,0.24267578125,7.1875,-34.0,-11.25,34.0859375
2605,0.3173828125,0.023681640625,0.24267578125,7.1875,-34.0,-11.25,34.0859375
2607,0.35009765625,0.03564453125,0.25439453125,2.375,-28.0,-13.1875,34.0859375
2609,0.35009765625,0.03564453125,0.25439453125,2.375,-28.0,-13.1875,34.0859375
2613,0.35009765625,0.03564453125,0.25439453125,-1.9375,-21.5,-13.9375,34.0859375
2615,0.364501953125,0.04638671875,0.265625,-1.9375,-21.5,-13.9375,34.0859375
2617,0.369140625,0.052978515625,0.272705078125,-5.3125,-15.4375,-13.875,34.0859375
2619,0.369140625,0.052978515625,0.272705078125,-5.3125,-15.4375,-13.875,34.0859375
2621,0.3671875,0.0498046875,0.281494140625,-7.75,-10.125,-12.75,34.0859375
2623,0.3671875,0.0498046875,0.281494140625,-7.75,-10.125,-12.75,34.0859375
2625,0.357421875,0.03759765625,0.2861328125,-8.75,-4.4375,-10.0,34.0859375
2627,0.357421875,0.03759765625,0.2861328125,-8.75,-4.4375,-10.0,34.0859375
2629,0.33935546875,0.013671875,0.2861328125,-8.125,0.6875,-6.0625,34.0859375
2631,0.33935546875,0.013671875,0.2861328125,-8.125,0.6875,-6.0625,34.0859375
2633,0.33935546875,0.013671875,0.2861328125,-8.125,0.6875,-1.5,34.0859375
2635,0.318115234375,-0.018798828125,0.284423828125,-5.375,5.3125,-1.5,34.0859375
2637,0.318115234375,-0.018798828125,0.284423828125,-5.375,5.3125,-1.5,34.0859375
2639,0.294677734375,-0.060791015625,0.2841796875,-0.0625,9.4375,3.0625,34.0859375
2641,0.294677734375,-0.060791015625,0.2841796875,-0.0625,9.4375,3.0625,34.0859375
2643,0.271484375,-0.114990234375,0.286376953125,7.125,13.1875,7.875,34.0859375
2645,0.271484375,-0.114990234375,0.286376953125,7.125,13.1875,7.875,34.0859375
2647,0.2451171875,-0.163818359375,0.28955078125,15.625,16.875,11.625,34.0859375
2649,0.2451171875,-0.163818359375,0.28955078125,15.625,16.875,11.625,34.0859375
2651,0.215087890625,-0.201416015625,0.298095703125,24.3125,19.6875,13.5625,34.0859375
2653,0.215087890625,-0.201416015625,0.298095703125,24.3125,19.6875,13.5625,34.0859375
2655,0.215087890625,-0.201416015625,0.298095703125,24.3125,19.6875,13.5625,34.0859375
2657,0.188232421875,-0.22998046875,0.3037109375,32.1875,21.6875,13.625,34.0859375
2659,0.188232421875,-0.22998046875,0.3037109375,32.1875,21.6875,13.625,34.0859375
2661,0.17236328125,-0.24658203125,0.3125,39.0,23.1875,12.4375,34.0859375
2662,0.17236328125,-0.24658203125,0.3125,39.0,23.1875,12.4375,34.0859375
2664,0.16455078125,-0.252197265625,0.3232421875,43.5,24.5625,10.5625,34.0859375
2667,0.16455078125,-0.252197265625,0.3232421875,43.5,24.5625,10.5625,34.0859375
2669,0.153076171875,-0.246826171875,0.330322265625,45.3125,26.0,7.8125,34.0859375
2671,0.153076171875,-0.246826171875,0.330322265625,45.3125,26.0,7.8125,34.0859375
2673,0.153076171875,-0.246826171875,0.330322265625,45.3125,26.0,7.8125,34.0859375
2675,0.138427734375,-0.232421875,0.336181640625,44.8125,28.0,4.125,34.08984375
2676,0.138427734375,-0.232421875,0.336181640625,44.8125,28.0,4.125,34.08984375
2678,0.11865234375,-0.21337890625,0.340576171875,43.0,30.5,-0.3125,34.08984375
2680,0.11865234375,-0.21337890625,0.340576171875,43.0,30.5,-0.3125,34.08984375
2682,0.096435546875,-0.19091796875,0.340576171875,40.375,33.3125,-4.8125,34.08984375
2684,0.096435546875,-0.19091796875,0.340576171875,40.375,33.3125,-4.8125,34.08984375
2686,0.096435546875,-0.19091796875,0.340576171875,38.0625,35.9375,-9.1875,34.08984375
2688,0.073974609375,-0.16845703125,0.34033203125,38.0625,35.9375,-9.1875,34.08984375
2690,0.073974609375,-0.16845703125,0.34033203125,38.0625,35.9375,-9.1875,34.08984375
2692,0.056396484375,-0.14404296875,0.340576171875,36.375,37.4375,-13.4375,34.08984375
2694,0.056396484375,-0.14404296875,0.340576171875,36.375,37.4375,-13.4375,34.08984375
2696,0.052001953125,-0.1162109375,0.337646484375,35.3125,38.25,-17.5625,34.08984375
2698,0.052001953125,-0.1162109375,0.337646484375,35.3125,38.25,-17.5625,34.08984375
2700,0.0556640625,-0.076171875,0.325927734375,34.5,38.5625,-21.5625,34.08984375
2702,0.0556640625,-0.076171875,0.325927734375,34.5,38.5625,-21.5625,34.08984375
2704,0.0693359375,-0.032470703125,0.306884765625,33.75,39.5625,-25.5,34.08984375
2706,0.0693359375,-0.032470703125,0.306884765625,33.75,39.5625,-25.5,34.08984375
2708,0.0693359375,-0.032470703125,0.306884765625,33.75,39.5625,-25.5,34.08984375
2711,0.083984375,0.005859375,0.289306640625,31.5625,40.9375,-27.6875,34.08984375
2713,0.081787109375,0.047119140625,0.2744140625,28.1875,43.25,-28.5625,34.08984375
2715,0.081787109375,0.047119140625,0.2744140625,28.1875,43.25,-28.5625,34.08984375
2717,0.081787109375,0.047119140625,0.2744140625,28.1875,43.25,-28.875,34.08984375
2720,0.068603515625,0.093017578125,0.264404296875,24.6875,46.75,-28.875,34.08984375
2721,0.068603515625,0.093017578125,0.264404296875,24.6875,46.75,-28.875,34.08984375
2723,0.081787109375,0.150390625,0.2900390625,23.375,51.5,-28.8125,34.08984375
2725,0.081787109375,0.150390625,0.2900390625,23.375,51.5,-28.8125,34.08984375
2727,0.07958984375,0.186279296875,0.238037109375,21.375,56.9375,-28.125,34.08984375
2729,0.07958984375,0.186279296875,0.238037109375,21.375,56.9375,-28.125,34.08984375
2731,0.06396484375,0.201416015625,0.162109375,9.375,59.8125,-23.625,34.08984375
2734,0.06396484375,0.201416015625,0.162109375,9.375,59.8125,-23.625,34.08984375
2736,0.048828125,0.188232421875,0.175048828125,2.375,64.3125,-19.8125,34.08984375
2737,0.048828125,0.188232421875,0.175048828125,2.375,64.3125,-19.8125,34.08984375
2739,0.048828125,0.164794921875,0.169677734375,-0.5,70.1875,-16.875,34.08984375
2741,0.012451171875,0.164794921875,0.169677734375,-0.5,70.1875,-16.875,34.08984375
2743,0.012451171875,0.164794921875,0.169677734375,-0.5,70.1875,-16.875,34.08984375
2745,-0.026123046875,0.156494140625,0.153564453125,-2.3125,75.5,-13.125,34.08984375
2747,-0.026123046875,0.156494140625,0.153564453125,-2.3125,75.5,-13.125,34.08984375
2749,-0.064697265625,0.1435546875,0.126953125,-2.5625,79.375,-9.0625,34.08984375
2751,-0.064697265625,0.1435546875,0.126953125,-2.5625,79.375,-9.0625,34.08984375
2753,-0.10302734375,0.12939453125,0.097900390625,-2.1875,82.25,-5.3125,34.08984375
2755,-0.10302734375,0.12939453125,0.097900390625,-2.1875,82.25,-5.3125,34.08984375
2757,-0.144775390625,0.105712890625,0.0732421875,-1.5,84.25,-1.3125,34.08984375
2759,-0.144775390625,0.105712890625,0.0732421875,-1.5,84.25,-1.3125,34.08984375
2761,-0.144775390625,0.105712890625,0.0732421875,-1.5,84.25,-1.3125,34.08984375
2763,-0.179443359375,0.07666015625,0.04931640625,-0.3125,85.25,2.625,34.08984375
2765,-0.179443359375,0.07666015625,0.04931640625,-0.3125,85.25,2.625,34.08984375
2767,-0.224365234375,0.049560546875,0.038330078125,1.75,85.9375,6.0,34.08984375
2769,-0.224365234375,0.049560546875,0.038330078125,1.75,85.9375,6.0,34.08984375
2771,-0.27978515625,0.030029296875,0.036865234375,5.8125,86.75,8.375,34.08984375
2773,-0.27978515625,0.030029296875,0.036865234375,5.8125,86.75,8.375,34.08984375
2775,-0.27978515625,0.030029296875,0.036865234375,10.8125,86.625,10.125,34.08984375
2777,-0.326416015625,0.0234375,0.03759765625,10.8125,86.625,10.125,34.08984375
2779,-0.326416015625,0.0234375,0.03759765625,10.8125,86.625,10.125,34.08984375
2781,-0.3623046875,0.0283203125,0.034912109375,15.9375,85.25,10.9375,34.08984375
2783,-0.3623046875,0.0283203125,0.034912109375,15.9375,85.25,10.9375,34.08984375
2785,-0.392822265625,0.043701171875,0.03076171875,20.5,83.0,11.3125,34.08984375
2787,-0.392822265625,0.043701171875,0.03076171875,20.5,83.0,11.3125,34.08984375
2789,-0.41650390625,0.063720703125,0.03271484375,24.125,80.25,10.9375,34.08984375
2791,-0.41650390625,0.063720703125,0.03271484375,24.125,80.25,10.9375,34.08984375
2793,-0.443603515625,0.087158203125,0.03466796875,27.375,76.9375,10.125,34.08984375
2795,-0.443603515625,0.087158203125,0.03466796875,27.375,76.9375,10.125,34.08984375
2797,-0.443603515625,0.087158203125,0.03466796875,27.375,76.9375,10.125,34.08984375
2799,-0.4794921875,0.125732421875,0.02978515625,31.0,72.75,9.25,34.08984375
2801,-0.4794921875,0.125732421875,0.02978515625,31.0,72.75,9.25,34.08984375
2803,-0.464111328125,0.16552734375,0.03369140625,31.625,69.0625,8.3125,34.08984375
2805,-0.464111328125,0.16552734375,0.03369140625,31.625,69.0625,8.3125,34.08984375
2807,-0.463134765625,0.208984375,0.053466796875,30.5625,66.0625,6.75,34.08984375
2809,-0.463134765625,0.208984375,0.053466796875,30.5625,66.0625,6.75,34.08984375
2811,-0.48828125,0.260986328125,0.074462890625,28.6875,64.5,5.9375,34.08984375
2813,-0.48828125,0.260986328125,0.074462890625,28.6875,64.5,5.9375,34.08984375
2815,-0.48828125,0.260986328125,0.074462890625,28.6875,64.125,6.1875,34.08984375
2817,-0.5048828125,0.306396484375,0.10302734375,24.625,64.125,6.1875,34.0859375
2818,-0.5048828125,0.306396484375,0.10302734375,24.625,64.125,6.1875,34.0859375
2821,-0.521240234375,0.333740234375,0.136962890625,20.375,63.9375,7.625,34.0859375
2823,-0.521240234375,0.333740234375,0.136962890625,20.375,63.9375,7.625,34.0859375
2825,-0.55078125,0.3505859375,0.17138671875,18.125,63.625,10.875,34.0859375
2827,-0.55078125,0.3505859375,0.17138671875,18.125,63.625,10.875,34.0859375
2829,-0.587646484375,0.365478515625,0.216796875,18.4375,63.4375,15.875,34.0859375
2831,-0.587646484375,0.365478515625,0.216796875,18.4375,63.4375,15.875,34.0859375
2833,-0.61328125,0.373291015625,0.2734375,20.1875,63.9375,22.1875,34.0859375
2834,-0.61328125,0.373291015625,0.2734375,20.1875,63.9375,22.1875,34.0859375
2836,-0.61328125,0.373291015625,0.2734375,20.1875,63.9375,22.1875,34.0859375
2838,-0.639892578125,0.379150390625,0.325927734375,23.0,65.875,29.0625,34.0859375
2840,-0.639892578125,0.379150390625,0.325927734375,23.0,65.875,29.0625,34.0859375
2842,-0.684326171875,0.3818359375,0.370849609375,27.0,68.4375,35.4375,34.0859375
2845,-0.684326171875,0.3818359375,0.370849609375,27.0,68.4375,35.4375,34.0859375
2847,-0.740478515625,0.374755859375,0.41162109375,31.25,71.0625,41.3125,34.0859375
2848,-0.740478515625,0.374755859375,0.41162109375,31.25,71.0625,41.3125,34.0859375
2850,-0.79296875,0.354736328125,0.46142578125,35.3125,73.3125,46.8125,34.0859375
2852,-0.79296875,0.354736328125,0.46142578125,35.3125,73.3125,46.8125,34.0859375
2854,-0.79296875,0.354736328125,0.46142578125,35.3125,73.3125,46.8125,34.0859375
2856,-0.83349609375,0.33154296875,0.528564453125,39.6875,74.5625,51.375,34.0859375
2858,-0.83349609375,0.33154296875,0.528564453125,39.6875,74.5625,51.375,34.0859375
2860,-0.878662109375,0.30908203125,0.60546875,45.125,74.875,54.8125,34.0859375
2862,-0.878662109375,0.30908203125,0.60546875,45.125,74.875,54.8125,34.0859375
2864,-0.909912109375,0.29833984375,0.66455078125,51.625,73.5,58.6875,34.0859375
2866,-0.909912109375,0.29833984375,0.66455078125,51.625,73.5,58.6875,34.0859375
2868,-0.925537109375,0.197021484375,0.716796875,57.125,79.25,50.8125,34.0859375
2870,-0.925537109375,0.197021484375,0.716796875,57.125,79.25,50.8125,34.0859375
2872,-0.925537109375,0.197021484375,0.716796875,57.125,79.25,37.5625,34.0859375
2874,-0.961669921875,0.162353515625,0.768310546875,69.8125,72.4375,37.5625,34.0859375
2876,-0.961669921875,0.162353515625,0.768310546875,69.8125,72.4375,37.5625,34.0859375
2878,-1.031494140625,0.263671875,0.782470703125,86.1875,74.0,61.8125,34.0859375
2880,-1.031494140625,0.263671875,0.782470703125,86.1875,74.0,61.8125,34.0859375
2882,-1.0322265625,0.328369140625,0.7958984375,90.3125,70.375,90.5,34.0859375
2884,-1.0322265625,0.328369140625,0.7958984375,90.3125,70.375,90.5,34.0859375
2885,-1.0322265625,0.328369140625,0.7958984375,90.3125,54.0625,99.3125,34.0859375
2888,-0.948486328125,0.339599609375,0.83203125,95.5625,54.0625,99.3125,34.0859375
2890,-0.948486328125,0.339599609375,0.83203125,95.5625,54.0625,99.3125,34.0859375
2892,-0.860107421875,0.3125,0.93896484375,104.0625,34.0625,87.0,34.0859375
2894,-0.860107421875,0.3125,0.93896484375,104.0625,34.0625,87.0,34.0859375
2895,-0.818359375,0.293701171875,1.036865234375,103.4375,19.375,64.125,34.0859375
2897,-0.818359375,0.293701171875,1.036865234375,103.4375,19.375,64.125,34.0859375
2899,-0.841796875,0.310546875,1.09521484375,90.375,13.0625,45.4375,34.0859375
2901,-0.841796875,0.310546875,1.09521484375,90.375,13.0625,45.4375,34.0859375
2903,-0.841796875,0.373046875,1.079345703125,67.25,8.9375,34.0,34.0859375
2905,-0.8984375,0.327392578125,1.079345703125,67.25,8.9375,34.0,34.0859375
2907,-0.8984375,0.327392578125,1.079345703125,67.25,8.9375,34.0,34.0859375
2909,-0.914794921875,0.306640625,1.039794921875,39.0,3.1875,26.5625,34.0859375
2911,-0.914794921875,0.306640625,1.039794921875,39.0,3.1875,26.5625,34.0859375
2913,-0.880859375,0.251220703125,1.06201171875,18.8125,1.8125,20.6875,34.0859375
2915,-0.880859375,0.251220703125,1.06201171875,18.8125,1.8125,20.6875,34.0859375
2917,-0.85107421875,0.217529296875,1.076416015625,7.375,7.3125,16.5625,34.0859375
2920,-0.85107421875,0.217529296875,1.076416015625,7.375,7.3125,16.5625,34.0859375
2922,-0.848876953125,0.23828125,1.052978515625,-2.75,15.5625,13.375,34.0859375
2924,-0.848876953125,0.23828125,1.052978515625,-2.75,15.5625,13.375,34.0859375
2925,-0.857421875,0.3017578125,1.020751953125,-14.25,22.25,10.8125,34.0859375
2927,-0.857421875,0.3017578125,1.020751953125,-14.25,22.25,10.8125,34.0859375
2929,-0.857421875,0.3017578125,1.020751953125,-14.25,22.25,10.8125,34.0859375
2931,-0.857421875,0.368408203125,1.011474609375,-25.4375,28.6875,9.25,34.0859375
2934,-0.857421875,0.368408203125,1.011474609375,-25.4375,28.6875,9.25,34.0859375
2936,-0.851806640625,0.408203125,1.016845703125,-33.5625,37.0625,9.0625,34.0859375
2937,-0.851806640625,0.408203125,1.016845703125,-33.5625,37.0625,9.0625,34.0859375
2939,-0.84228515625,0.4287109375,1.037353515625,-33.6875,47.375,11.0,34.0859375
2941,-0.84228515625,0.4287109375,1.037353515625,-33.6875,47.375,11.0,34.0859375
2943,-0.77978515625,0.45703125,1.05517578125,-25.1875,57.25,14.125,34.0859375
2945,-0.810791015625,0.45703125,1.05517578125,-25.1875,57.25,14.125,34.0859375
2947,-0.810791015625,0.45703125,1.05517578125,-25.1875,57.25,14.125,34.0859375
2949,-0.77197265625,0.4990234375,1.07861328125,-12.75,65.875,17.4375,34.0859375
2951,-0.77197265625,0.4990234375,1.07861328125,-12.75,65.875,17.4375,34.0859375
2953,-0.726806640625,0.50830078125,1.11181640625,-1.5,75.8125,21.625,34.0859375
2955,-0.726806640625,0.50830078125,1.11181640625,-1.5,75.8125,21.625,34.0859375
2957,-0.68212890625,0.47119140625,1.1572265625,7.8125,87.25,27.625,34.08203125
2959,-0.68212890625,0.47119140625,1.1572265625,7.8125,87.25,27.625,34.08203125
2961,-0.65869140625,0.411376953125,1.218017578125,16.75,99.625,34.125,34.08203125
2963,-0.65869140625,0.411376953125,1.218017578125,16.75,99.625,34.125,34.08203125
2965,-0.65869140625,0.3642578125,1.2861328125,25.4375,111.0,39.375,34.08203125
2967,-0.64697265625,0.3642578125,1.2861328125,25.4375,111.0,39.375,34.08203125
2969,-0.64697265625,0.3642578125,1.2861328125,25.4375,111.0,39.375,34.08203125
2971,-0.651123046875,0.332763671875,1.34716796875,32.3125,120.1875,44.125,34.08203125
2973,-0.651123046875,0.332763671875,1.34716796875,32.3125,120.1875,44.125,34.08203125
2975,-0.658447265625,0.3046875,1.390625,36.0625,124.9375,48.4375,34.08203125
2978,-0.658447265625,0.3046875,1.390625,36.0625,124.9375,52.4375,34.08203125
2981,-0.644287109375,0.2490234375,1.41455078125,36.875,125.5625,52.4375,34.08203125
2983,-0.644287109375,0.2490234375,1.41455078125,36.875,125.5625,52.4375,34.08203125
2985,-0.6279296875,0.1591796875,1.427490234375,36.4375,127.0625,55.8125,34.08203125
2986,-0.6279296875,0.1591796875,1.427490234375,36.4375,127.0625,55.8125,34.08203125
2988,-0.609375,0.064453125,1.453857421875,36.0625,132.375,58.375,34.08203125
2990,-0.609375,0.064453125,1.453857421875,36.0625,132.375,58.375,34.08203125
2992,-0.5908203125,-0.00048828125,1.51220703125,35.25,142.8125,58.625,34.08203125
2994,-0.5908203125,-0.00048828125,1.51220703125,35.25,142.8125,58.625,34.08203125
2996,-0.5908203125,-0.029052734375,1.601806640625,34.0,156.0625,56.1875,34.08203125
2998,-0.58544921875,-0.029052734375,1.601806640625,34.0,156.0625,56.1875,34.08203125
3000,-0.58544921875,-0.029052734375,1.601806640625,34.0,156.0625,56.1875,34.08203125
3003,-0.60498046875,-0.03955078125,1.707275390625,32.375,170.0625,51.0,34.08203125
3005,-0.60498046875,-0.03955078125,1.707275390625,32.375,170.0625,51.0,34.08203125
3006,-0.64404296875,-0.0537109375,1.8037109375,32.625,182.875,43.375,34.08203125
3008,-0.64404296875,-0.0537109375,1.8037109375,32.625,182.875,43.375,34.08203125
3010,-0.6943359375,-0.068359375,1.889892578125,35.5625,192.0625,34.6875,34.08203125
3012,-0.6943359375,-0.068359375,1.889892578125,35.5625,192.0625,34.6875,34.08203125
3014,-0.758544921875,-0.07763671875,1.9658203125,41.125,197.5625,25.375,34.08203125
3016,-0.758544921875,-0.07763671875,1.9658203125,41.125,197.5625,25.375,34.08203125
3018,-0.758544921875,-0.07763671875,1.9658203125,41.125,197.5625,25.375,34.08203125
3020,-0.8046875,-0.072998046875,2.02978515625,47.5,200.875,14.4375,34.08203125
3022,-0.8046875,-0.072998046875,2.02978515625,47.5,200.875,14.4375,34.08203125
3024,-0.82080078125,-0.033935546875,2.0869140625,53.25,203.0625,2.3125,34.08203125
3026,-0.82080078125,-0.033935546875,2.0869140625,53.25,203.0625,2.3125,34.08203125
3028,-0.82373046875,0.033447265625,2.139892578125,57.0,204.625,-9.5,34.08203125
3030,-0.82373046875,0.033447265625,2.139892578125,57.0,204.625,-9.5,34.08203125
3032,-0.82470703125,0.117919921875,2.18310546875,57.0625,205.25,-19.25,34.08203125
3034,-0.82470703125,0.117919921875,2.18310546875,57.0625,205.25,-19.25,34.08203125
3036,-0.82470703125,0.117919921875,2.18310546875,57.0625,205.25,-19.25,34.08203125
3038,-0.820556640625,0.2001953125,2.216552734375,54.125,204.3125,-25.625,34.08203125
3040,-0.820556640625,0.2001953125,2.216552734375,54.125,204.3125,-25.625,34.08203125
3042,-0.827880859375,0.283447265625,2.241455078125,49.9375,201.1875,-27.125,34.08203125
3043,-0.827880859375,0.283447265625,2.241455078125,49.9375,201.1875,-27.125,34.08203125
3046,-0.828369140625,0.346923828125,2.26025390625,45.1875,194.875,-22.125,34.08203125
3048,-0.828369140625,0.346923828125,2.26025390625,45.1875,194.875,-22.125,34.08203125
3050,-0.7978515625,0.370849609375,2.27490234375,41.0,184.125,-19.875,34.08203125
3052,-0.7978515625,0.370849609375,2.27490234375,41.0,184.125,-19.875,34.08203125
3054,-0.7978515625,0.370849609375,2.27490234375,41.0,184.125,-19.875,34.08203125
3056,-0.765380859375,0.395751953125,2.2666015625,36.125,172.6875,-18.0,34.08203125
3058,-0.765380859375,0.395751953125,2.2666015625,36.125,172.6875,-18.0,34.08203125
3059,-0.77001953125,0.41552734375,2.2314453125,29.3125,161.75,-12.4375,34.08203125
3061,-0.77001953125,0.41552734375,2.2314453125,29.3125,161.75,-12.4375,34.08203125
