time,acc_x,acc_y,acc_z,gyro_x,gyro_y,gyro_z,temp
0,0.0,0.0,0.0,0.0,0.0,0.0,0.0
2,0.0,0.0,0.0,0.0,0.0,0.0,0.0
4,0.0,0.0,0.0,0.0,0.0,0.0,0.0
5,0.0,0.0,0.0,0.0,0.0,0.0,0.0
7,0.0,0.0,0.0,0.0,0.0,0.0,0.0
9,0.0,0.0,0.0,0.0,0.0,0.0,0.0
11,0.0,0.0,0.0,0.0,0.0,0.0,0.0
13,0.0,0.0,0.0,0.0,0.0,0.0,0.0
14,0.0,0.0,0.0,0.0,0.0,0.0,0.0
16,0.0,0.0,0.0,0.0,0.0,0.0,0.0
18,0.0,0.0,0.0,0.0,0.0,0.0,0.0
20,0.0,0.0,0.0,0.0,0.0,0.0,0.0
22,0.0,0.0,0.0,0.0,0.0,0.0,0.0
23,0.0,0.0,0.0,0.0,0.0,0.0,0.0
25,0.0,0.0,0.0,0.0,0.0,0.0,0.0
27,0.0,0.0,0.0,0.0,0.0,0.0,0.0
29,0.0,0.0,0.0,0.0,0.0,0.0,0.0
31,0.0,0.0,0.0,0.0,0.0,0.0,0.0
33,0.0,0.0,0.0,0.0,0.0,0.0,0.0
35,0.0,0.0,0.0,0.0,0.0,0.0,0.0
37,0.0,0.0,0.0,0.0,0.0,0.0,0.0
38,0.0,0.0,0.0,0.0,0.0,0.0,0.0
40,0.0,0.0,0.0,0.0,0.0,0.0,0.0
42,0.0,0.0,0.0,0.0,0.0,0.0,0.0
44,0.0,0.0,0.0,0.0,0.0,0.0,0.0
45,0.0,0.0,0.0,0.0,0.0,0.0,0.0
47,0.0,0.0,0.0,0.0,0.0,0.0,0.0
49,0.0,0.0,0.0,0.0,0.0,0.0,0.0
51,0.0,0.0,0.0,0.0,0.0,0.0,0.0
53,0.0,0.0,0.0,0.0,0.0,0.0,0.0
54,0.0,0.0,0.0,0.0,0.0,0.0,0.0
56,0.0,0.0,0.0,0.0,0.0,0.0,0.0
58,0.0,0.0,0.0,0.0,0.0,0.0,0.0
60,0.0,0.0,0.0,0.0,0.0,0.0,0.0
62,0.0,0.0,0.0,0.0,0.0,0.0,0.0
63,0.0,0.0,0.0,0.0,0.0,0.0,0.0
66,0.0,0.0,0.0,0.0,0.0,0.0,0.0
67,0.0,0.0,0.0,0.0,0.0,0.0,0.0
69,0.0,0.0,0.0,0.0,0.0,0.0,0.0
71,0.0,0.0,0.0,0.0,0.0,0.0,0.0
73,0.0,0.0,0.0,0.0,0.0,0.0,0.0
75,0.0,0.0,0.0,0.0,0.0,0.0,0.0
76,0.0,0.0,0.0,0.0,0.0,0.0,0.0
78,0.0,0.0,0.0,0.0,0.0,0.0,0.0
80,0.0,0.0,0.0,0.0,0.0,0.0,0.0
82,0.0,0.0,0.0,0.0,0.0,0.0,0.0
84,0.0,0.0,0.0,0.0,0.0,0.0,0.0
85,0.0,0.0,0.0,0.0,0.0,0.0,0.0
87,0.0,0.0,0.0,0.0,0.0,0.0,0.0
89,0.0,0.0,0.0,0.0,0.0,0.0,0.0
91,0.0,0.0,0.0,0.0,0.0,0.0,0.0
92,0.0,0.0,0.0,0.0,0.0,0.0,0.0
94,0.0,0.0,0.0,0.0,0.0,0.0,0.0
96,-0.21923828125,2.955322265625,-4.11669921875,392.125,339.25,443.8125,0.0
99,-0.21923828125,2.955322265625,-4.11669921875,392.125,339.25,443.8125,33.953125
100,-0.21923828125,1.017822265625,-8.0,-2048.0,-2048.0,-2048.0,33.953125
102,-8.0,1.05810546875,-8.0,-2048.0,-2048.0,-2048.0,33.953125
104,-8.0,1.05810546875,-8.0,-2048.0,-2048.0,-2048.0,33.953125
106,7.999755859375,-8.0,-8.0,-2048.0,-2048.0,-2048.0,33.953125
108,7.999755859375,-8.0,-8.0,-2048.0,-2048.0,-2048.0,33.953125
110,-0.36279296875,-0.2568359375,1.25537109375,53.5,-120.1875,-6.5625,33.953125
112,-0.36279296875,-0.2568359375,1.25537109375,53.5,-120.1875,-6.5625,33.953125
113,-0.36279296875,-0.2568359375,1.25537109375,53.5,-120.1875,-6.5625,33.953125
115,-0.34619140625,-0.2451171875,1.248779296875,59.8125,-121.0,-8.125,33.953125
117,-0.34619140625,-0.2451171875,1.248779296875,59.8125,-121.0,-8.125,33.953125
119,-0.337890625,-0.229248046875,1.240966796875,65.625,-121.25,-9.8125,33.953125
122,-0.337890625,-0.229248046875,1.240966796875,65.625,-121.25,-9.8125,33.953125
124,-0.338134765625,-0.211181640625,1.23193359375,70.0625,-121.0625,-11.5625,34.046875
126,-0.338134765625,-0.211181640625,1.23193359375,70.0625,-121.0625,-11.5625,34.046875
127,-0.342041015625,-0.193603515625,1.22119140625,75.875,-120.3125,-12.9375,34.046875
129,-0.342041015625,-0.193603515625,1.22119140625,75.875,-120.3125,-12.9375,34.046875
131,-0.342041015625,-0.193603515625,1.22119140625,75.875,-120.3125,-13.75,34.046875
133,-0.34716796875,-0.17529296875,1.208740234375,82.375,-118.375,-13.75,34.046875
135,-0.34716796875,-0.17529296875,1.208740234375,82.375,-118.375,-13.75,34.046875
137,-0.3515625,-0.15185546875,1.200439453125,88.0625,-116.625,-14.1875,34.046875
139,-0.3515625,-0.15185546875,1.200439453125,88.0625,-116.625,-14.1875,34.046875
141,-0.356689453125,-0.1279296875,1.189453125,92.0625,-116.0,-14.3125,34.046875
144,-0.356689453125,-0.1279296875,1.189453125,92.0625,-116.0,-14.3125,34.046875
145,-0.364990234375,-0.105224609375,1.174560546875,93.1875,-115.9375,-13.75,34.046875
147,-0.364990234375,-0.105224609375,1.174560546875,93.1875,-115.9375,-13.75,34.046875
149,-0.377197265625,-0.085693359375,1.15234375,92.1875,-116.375,-12.4375,34.046875
151,-0.377197265625,-0.085693359375,1.15234375,92.1875,-116.375,-12.4375,34.046875
153,-0.377197265625,-0.085693359375,1.15234375,92.1875,-116.375,-12.4375,34.046875
155,-0.391845703125,-0.070556640625,1.123291015625,88.625,-117.3125,-10.125,34.046875
157,-0.391845703125,-0.070556640625,1.123291015625,88.625,-117.3125,-10.125,34.046875
159,-0.40234375,-0.062255859375,1.09716796875,83.0,-118.9375,-6.6875,34.046875
161,-0.40234375,-0.062255859375,1.09716796875,83.0,-118.9375,-6.6875,34.046875
163,-0.410400390625,-0.060302734375,1.076171875,76.0625,-120.5625,-2.6875,34.046875
166,-0.410400390625,-0.060302734375,1.076171875,76.0625,-120.5625,-2.6875,34.046875
168,-0.41552734375,-0.06298828125,1.05615234375,68.0,-122.25,1.5,34.046875
170,-0.41552734375,-0.06298828125,1.05615234375,68.0,-122.25,1.5,34.046875
171,-0.415771484375,-0.0712890625,1.036376953125,59.375,-124.4375,6.375,34.046875
173,-0.415771484375,-0.0712890625,1.036376953125,59.375,-124.4375,6.375,34.046875
175,-0.415771484375,-0.0712890625,1.036376953125,59.375,-124.4375,6.375,34.046875
177,-0.414794921875,-0.08544921875,1.019287109375,50.0625,-127.5,11.0,34.046875
179,-0.414794921875,-0.08544921875,1.019287109375,50.0625,-127.5,11.0,34.046875
181,-0.413818359375,-0.1064453125,1.001708984375,40.6875,-130.875,14.4375,34.046875
183,-0.413818359375,-0.1064453125,1.001708984375,40.6875,-130.875,14.4375,34.046875
185,-0.406005859375,-0.132568359375,0.980712890625,31.75,-133.875,16.9375,34.046875
187,-0.406005859375,-0.132568359375,0.980712890625,31.75,-133.875,16.9375,34.046875
189,-0.389892578125,-0.15771484375,0.95556640625,23.375,-136.4375,18.8125,34.046875
191,-0.389892578125,-0.15771484375,0.95556640625,23.375,-136.4375,18.8125,34.046875
193,-0.389892578125,-0.15771484375,0.95556640625,23.375,-136.4375,19.4375,34.046875
195,-0.3740234375,-0.1748046875,0.933837890625,16.1875,-137.75,19.4375,34.046875
197,-0.3740234375,-0.1748046875,0.933837890625,16.1875,-137.75,19.4375,34.046875
199,-0.360107421875,-0.190673828125,0.916259765625,10.0625,-138.25,18.4375,34.046875
201,-0.360107421875,-0.190673828125,0.916259765625,10.0625,-138.25,18.4375,34.046875
203,-0.34716796875,-0.208740234375,0.904052734375,4.5,-138.125,16.375,34.046875
205,-0.34716796875,-0.208740234375,0.904052734375,4.5,-138.125,16.375,34.046875
207,-0.33447265625,-0.225830078125,0.900146484375,0.1875,-137.375,13.4375,34.046875
209,-0.33447265625,-0.225830078125,0.900146484375,0.1875,-137.375,13.4375,34.046875
211,-0.32080078125,-0.23876953125,0.905029296875,-2.5,-135.6875,10.0,34.046875
213,-0.32080078125,-0.23876953125,0.905029296875,-2.5,-135.6875,10.0,34.046875
215,-0.32080078125,-0.23876953125,0.905029296875,-2.5,-135.6875,10.0,34.046875
217,-0.309814453125,-0.244384765625,0.913818359375,-2.9375,-133.25,6.125,34.046875
219,-0.309814453125,-0.244384765625,0.913818359375,-2.9375,-133.25,6.125,34.046875
221,-0.303466796875,-0.244384765625,0.922119140625,-1.4375,-130.8125,2.1875,34.046875
223,-0.303466796875,-0.244384765625,0.922119140625,-1.4375,-130.8125,2.1875,34.046875
225,-0.30615234375,-0.236572265625,0.93017578125,2.125,-127.6875,-1.625,34.046875
227,-0.30615234375,-0.236572265625,0.93017578125,2.125,-127.6875,-1.625,34.046875
229,-0.36865234375,-0.2294921875,0.943603515625,7.8125,-124.25,-4.875,34.046875
231,-0.3232421875,-0.2294921875,0.943603515625,7.8125,-124.25,-4.875,34.046875
233,-0.3232421875,-0.2294921875,0.97119140625,17.75,-119.9375,-6.375,34.046875
235,-0.368408203125,-0.22021484375,0.97119140625,17.75,-119.9375,-6.375,34.046875
237,-0.368408203125,-0.22021484375,0.97119140625,17.75,-119.9375,-6.375,34.046875
239,-0.35595703125,-0.214111328125,0.938232421875,26.6875,-116.375,-6.625,34.046875
241,-0.35595703125,-0.214111328125,0.938232421875,26.6875,-116.375,-6.625,34.046875
243,-0.33154296875,-0.188232421875,0.91162109375,30.9375,-113.4375,-7.375,34.046875
245,-0.33154296875,-0.188232421875,0.91162109375,30.9375,-113.4375,-7.375,34.046875
247,-0.32373046875,-0.1650390625,0.90234375,35.6875,-109.0,-8.5625,34.046875
249,-0.32373046875,-0.1650390625,0.90234375,35.6875,-109.0,-8.5625,34.046875
251,-0.32373046875,-0.1650390625,0.90234375,35.6875,-109.0,-8.5625,34.046875
253,-0.320068359375,-0.16650390625,0.8740234375,38.125,-106.25,-8.9375,34.046875
255,-0.320068359375,-0.16650390625,0.8740234375,38.125,-106.25,-8.9375,34.046875
257,-0.3330078125,-0.162841796875,0.8486328125,37.6875,-105.125,-8.375,34.046875
259,-0.3330078125,-0.162841796875,0.8486328125,37.6875,-105.125,-8.375,34.046875
261,-0.354248046875,-0.1513671875,0.832763671875,34.4375,-105.3125,-6.8125,34.046875
263,-0.354248046875,-0.1513671875,0.832763671875,34.4375,-105.3125,-6.8125,34.046875
265,-0.380615234375,-0.14013671875,0.830078125,29.5625,-106.125,-4.4375,34.02734375
267,-0.380615234375,-0.14013671875,0.830078125,29.5625,-106.125,-4.4375,34.02734375
269,-0.393310546875,-0.134521484375,0.819091796875,23.6875,-107.5,-1.6875,34.02734375
271,-0.393310546875,-0.134521484375,0.819091796875,23.6875,-107.5,-1.6875,34.02734375
273,-0.393310546875,-0.134521484375,0.819091796875,23.6875,-107.5,-1.6875,34.02734375
275,-0.389404296875,-0.129638671875,0.8017578125,17.0625,-109.375,0.5625,34.02734375
277,-0.389404296875,-0.129638671875,0.8017578125,17.0625,-109.375,0.5625,34.02734375
279,-0.379638671875,-0.126708984375,0.786376953125,10.125,-111.1875,2.125,34.02734375
281,-0.379638671875,-0.126708984375,0.786376953125,10.125,-111.1875,2.125,34.02734375
283,-0.372802734375,-0.1328125,0.774658203125,3.625,-112.75,3.125,34.02734375
285,-0.372802734375,-0.1328125,0.774658203125,3.625,-112.75,3.125,34.02734375
287,-0.397216796875,-0.185302734375,0.83203125,-3.6875,-121.875,-1.25,34.02734375
289,-0.397216796875,-0.185302734375,0.83203125,-3.6875,-121.875,-1.25,34.02734375
291,-0.303466796875,-0.2548828125,0.84765625,-11.4375,-136.3125,-14.8125,34.02734375
293,-0.303466796875,-0.2548828125,0.84765625,-11.4375,-136.3125,-14.8125,34.02734375
295,-0.303466796875,-0.2548828125,0.84765625,-27.4375,-128.8125,-13.8125,34.02734375
298,-0.2041015625,-0.283935546875,0.75830078125,-19.5625,-128.8125,-13.8125,34.02734375
300,-0.2041015625,-0.283935546875,0.75830078125,-31.5,-125.25,-3.625,34.02734375
302,-0.301025390625,-0.270751953125,0.79931640625,-31.5,-125.25,-3.625,34.02734375
304,-0.301025390625,-0.270751953125,0.79931640625,-31.5,-125.25,-3.625,34.02734375
306,-0.349609375,-0.1953125,0.799072265625,-38.5625,-131.9375,-3.5625,34.02734375
307,-0.349609375,-0.1953125,0.799072265625,-38.5625,-131.9375,-3.5625,34.02734375
309,-0.318115234375,-0.13671875,0.74853515625,-38.1875,-126.625,-4.625,34.02734375
311,-0.318115234375,-0.13671875,0.74853515625,-38.1875,-126.625,-4.625,34.02734375
313,-0.295654296875,-0.125,0.721923828125,-32.8125,-121.8125,-3.375,34.02734375
315,-0.295654296875,-0.125,0.721923828125,-32.8125,-121.8125,-3.375,34.02734375
317,-0.295654296875,-0.125,0.721923828125,-32.8125,-118.375,-2.6875,34.02734375
320,-0.2705078125,-0.140625,0.70556640625,-21.25,-118.375,-2.6875,34.02734375
322,-0.2705078125,-0.140625,0.70556640625,-21.25,-118.375,-2.6875,34.02734375
324,-0.239990234375,-0.155029296875,0.712890625,-8.4375,-114.625,-3.0,34.02734375
325,-0.239990234375,-0.155029296875,0.712890625,-8.4375,-114.625,-3.0,34.02734375
327,-0.225341796875,-0.160400390625,0.716064453125,-0.1875,-109.0625,-3.9375,34.02734375
329,-0.225341796875,-0.160400390625,0.716064453125,-0.1875,-109.0625,-3.9375,34.02734375
331,-0.21728515625,-0.175048828125,0.737548828125,2.25,-101.0,-5.375,34.02734375
333,-0.21728515625,-0.175048828125,0.737548828125,2.25,-101.0,-5.375,34.02734375
335,-0.15966796875,-0.189697265625,0.76953125,4.1875,-91.5625,-9.8125,34.02734375
337,-0.15966796875,-0.189697265625,0.76953125,4.1875,-91.5625,-9.8125,34.02734375
339,-0.15966796875,-0.189697265625,0.76953125,4.1875,-91.5625,-9.8125,34.02734375
342,-0.099853515625,-0.215087890625,0.770751953125,7.75,-83.5625,-17.0,34.02734375
344,-0.099853515625,-0.215087890625,0.770751953125,7.75,-83.5625,-17.0,34.02734375
346,-0.104248046875,-0.227783203125,0.724365234375,13.125,-80.25,-23.1875,34.02734375
348,-0.104248046875,-0.227783203125,0.724365234375,13.125,-80.25,-23.1875,34.02734375
349,-0.1533203125,-0.206787109375,0.66943359375,16.0625,-76.375,-26.375,34.02734375
351,-0.1533203125,-0.206787109375,0.66943359375,16.0625,-76.375,-26.375,34.02734375
353,-0.209228515625,-0.171630859375,0.686767578125,20.375,-71.5625,-26.375,34.02734375
355,-0.209228515625,-0.171630859375,0.686767578125,20.375,-71.5625,-26.375,34.02734375
357,-0.222412109375,-0.14404296875,0.718994140625,30.0625,-64.75,-24.4375,34.02734375
359,-0.222412109375,-0.14404296875,0.718994140625,30.0625,-64.75,-24.4375,34.02734375
361,-0.222412109375,-0.14404296875,0.718994140625,30.0625,-64.75,-24.4375,34.02734375
364,-0.171630859375,-0.12646484375,0.67626953125,33.5625,-59.3125,-21.875,34.02734375
366,-0.171630859375,-0.12646484375,0.67626953125,33.5625,-59.3125,-21.875,34.02734375
368,-0.131103515625,-0.099609375,0.6591796875,33.1875,-53.0,-19.4375,34.02734375
370,-0.131103515625,-0.099609375,0.6591796875,33.1875,-53.0,-19.4375,34.02734375
372,-0.1025390625,-0.079833984375,0.636962890625,32.75,-48.0625,-17.1875,34.02734375
374,-0.1025390625,-0.079833984375,0.636962890625,32.75,-48.0625,-17.1875,34.02734375
376,-0.0908203125,-0.0654296875,0.623779296875,31.5625,-46.5625,-15.5625,34.02734375
378,-0.0908203125,-0.0654296875,0.623779296875,31.5625,-46.5625,-15.5625,34.02734375
379,-0.0908203125,-0.0654296875,0.623779296875,31.5625,-45.75,-14.6875,34.02734375
382,-0.086181640625,-0.050048828125,0.638916015625,30.375,-45.75,-14.6875,34.02734375
383,-0.086181640625,-0.050048828125,0.638916015625,30.375,-45.75,-14.6875,34.02734375
386,-0.0712890625,-0.039306640625,0.648193359375,28.375,-45.0,-14.25,34.02734375
388,-0.0712890625,-0.039306640625,0.648193359375,28.375,-45.0,-14.25,34.02734375
390,-0.054931640625,-0.037841796875,0.63916015625,21.125,-44.125,-14.0625,34.02734375
392,-0.054931640625,-0.037841796875,0.63916015625,21.125,-44.125,-14.0625,34.02734375
394,-0.033447265625,-0.038330078125,0.63134765625,10.5625,-44.1875,-14.0625,34.02734375
396,-0.033447265625,-0.038330078125,0.63134765625,10.5625,-44.1875,-14.0625,34.02734375
398,-0.02294921875,-0.041259765625,0.6611328125,2.25,-44.125,-14.0625,34.02734375
400,-0.02294921875,-0.041259765625,0.6611328125,2.25,-44.125,-14.0625,34.02734375
402,-0.02294921875,-0.041259765625,0.6611328125,-13.75,-45.0625,-14.1875,34.02734375
403,-0.017333984375,-0.039794921875,0.702392578125,-0.4375,-45.0625,-14.1875,34.02734375
405,-0.017333984375,-0.039794921875,0.702392578125,-0.4375,-45.0625,-14.1875,34.02734375
408,-0.021484375,-0.03466796875,0.7275390625,-1.125,-45.8125,-13.9375,34.078125
410,-0.021484375,-0.03466796875,0.7275390625,-1.125,-45.8125,-13.9375,34.078125
412,-0.02685546875,-0.028076171875,0.758056640625,-1.5,-45.625,-13.375,34.078125
414,-0.02685546875,-0.028076171875,0.758056640625,-1.5,-45.625,-13.375,34.078125
416,-0.033203125,-0.028076171875,0.786376953125,-1.0625,-45.0,-12.3125,34.078125
417,-0.033203125,-0.028076171875,0.786376953125,-1.0625,-45.0,-12.3125,34.078125
419,-0.033203125,-0.028076171875,0.81201171875,1.375,-44.5,-10.8125,34.078125
421,-0.03271484375,-0.05078125,0.81201171875,1.375,-44.5,-10.8125,34.078125
423,-0.03271484375,-0.05078125,0.81201171875,1.375,-44.5,-10.8125,34.078125
425,-0.024658203125,-0.07275390625,0.84033203125,7.1875,-44.8125,-10.1875,34.078125
427,-0.024658203125,-0.07275390625,0.84033203125,7.1875,-44.8125,-10.1875,34.078125
430,-0.014404296875,-0.045166015625,0.835205078125,13.75,-43.6875,-9.1875,34.078125
431,-0.014404296875,-0.045166015625,0.835205078125,13.75,-43.6875,-9.1875,34.078125
433,-0.00732421875,-0.01953125,0.831298828125,17.5,-42.0,-8.1875,34.078125
435,-0.00732421875,-0.01953125,0.831298828125,17.5,-42.0,-8.1875,34.078125
437,0.000244140625,0.0087890625,0.820068359375,21.25,-40.8125,-7.625,34.078125
439,0.000244140625,0.0087890625,0.820068359375,21.25,-40.8125,-7.625,34.078125
441,0.000244140625,0.0087890625,0.820068359375,21.25,-40.8125,-7.625,34.078125
443,0.00634765625,0.03857421875,0.808349609375,24.1875,-39.0625,-7.3125,34.078125
445,0.00634765625,0.03857421875,0.808349609375,24.1875,-39.0625,-7.3125,34.078125
447,0.01318359375,0.06298828125,0.805908203125,26.6875,-37.625,-7.375,34.078125
449,0.01318359375,0.06298828125,0.805908203125,26.6875,-37.625,-7.375,34.078125
451,0.01611328125,0.0849609375,0.8017578125,27.375,-36.5,-7.25,34.078125
454,0.01611328125,0.0849609375,0.8017578125,27.375,-36.5,-7.25,34.078125
456,0.006103515625,0.099365234375,0.800048828125,25.75,-35.625,-6.8125,34.078125
458,0.006103515625,0.099365234375,0.800048828125,25.75,-35.625,-6.8125,34.078125
460,-0.001708984375,0.11474609375,0.783935546875,22.875,-34.1875,-5.8125,34.078125
462,-0.001708984375,0.11474609375,0.783935546875,22.875,-34.1875,-5.8125,34.078125
464,-0.001708984375,0.11474609375,0.783935546875,22.875,-31.5625,-4.5,34.078125
466,0.001220703125,0.127685546875,0.761962890625,18.0,-31.5625,-4.5,34.078125
467,0.001220703125,0.127685546875,0.761962890625,18.0,-31.5625,-4.5,34.078125
469,0.00927734375,0.137939453125,0.74169921875,12.3125,-28.5,-3.5,34.078125
471,0.00927734375,0.137939453125,0.74169921875,12.3125,-28.5,-3.5,34.078125
475,0.007568359375,0.1435546875,0.727783203125,5.8125,-26.0,-2.9375,34.078125
477,0.00048828125,0.14794921875,0.71826171875,-1.0,-23.875,-2.125,34.078125
480,0.00048828125,0.14794921875,0.71826171875,-1.0,-23.875,-2.125,34.078125
482,-0.009521484375,0.152099609375,0.709716796875,-7.3125,-21.875,-1.1875,34.078125
484,-0.009521484375,0.152099609375,0.709716796875,-7.3125,-21.875,-1.1875,34.078125
486,-0.021484375,0.14892578125,0.701416015625,-13.1875,-19.5625,-0.1875,34.078125
488,-0.021484375,0.14892578125,0.701416015625,-13.1875,-19.5625,-0.1875,34.078125
490,-0.021484375,0.14892578125,0.688720703125,-17.9375,-16.5625,0.9375,34.078125
492,-0.02880859375,0.14599609375,0.688720703125,-17.9375,-16.5625,0.9375,34.078125
494,-0.02880859375,0.14599609375,0.688720703125,-17.9375,-16.5625,0.9375,34.078125
496,-0.029541015625,0.140625,0.667236328125,-22.125,-14.125,2.6875,34.078125
498,-0.029541015625,0.140625,0.667236328125,-22.125,-14.125,2.6875,34.078125
500,-0.029052734375,0.134521484375,0.651611328125,-24.625,-12.3125,4.125,34.078125
502,-0.029052734375,0.134521484375,0.651611328125,-24.625,-12.3125,4.125,34.078125
504,-0.03173828125,0.1279296875,0.657470703125,-21.4375,-12.5625,4.5625,34.078125
506,-0.03173828125,0.1279296875,0.657470703125,-21.4375,-12.5625,4.5625,34.078125
508,-0.039306640625,0.114013671875,0.625732421875,-15.0625,-12.125,4.125,34.078125
510,-0.039306640625,0.114013671875,0.625732421875,-15.0625,-12.125,4.125,34.078125
512,-0.039306640625,0.114013671875,0.625732421875,-15.0625,-12.125,4.125,34.078125
514,-0.0546875,0.089111328125,0.5869140625,-15.875,-7.4375,4.3125,34.078125
516,-0.0546875,0.089111328125,0.5869140625,-15.875,-7.4375,4.3125,34.078125
518,-0.06201171875,0.061767578125,0.54833984375,-20.8125,-3.375,5.0625,34.078125
520,-0.06201171875,0.061767578125,0.54833984375,-20.8125,-3.375,5.0625,34.078125
521,-0.06396484375,0.0341796875,0.506591796875,-27.3125,0.5625,5.875,34.078125
524,-0.06396484375,0.0341796875,0.506591796875,-27.3125,0.5625,5.875,34.078125
526,-0.0712890625,0.006103515625,0.480224609375,-33.875,3.6875,6.5625,34.078125
528,-0.0712890625,0.006103515625,0.480224609375,-33.875,3.6875,6.5625,34.078125
530,-0.0712890625,0.006103515625,0.474365234375,-36.5,4.6875,6.625,34.078125
532,-0.084228515625,-0.017822265625,0.474365234375,-36.5,4.6875,6.625,34.078125
534,-0.084228515625,-0.017822265625,0.474365234375,-36.5,4.6875,6.625,34.078125
536,-0.09326171875,-0.036865234375,0.471435546875,-34.625,5.1875,5.625,34.078125
538,-0.09326171875,-0.036865234375,0.471435546875,-34.625,5.1875,5.625,34.078125
540,-0.103759765625,-0.05517578125,0.46826171875,-32.25,7.5,4.375,34.078125
541,-0.103759765625,-0.05517578125,0.46826171875,-32.25,7.5,4.375,34.078125
543,-0.103759765625,-0.05517578125,0.46826171875,-30.25,10.1875,3.75,34.078125
545,-0.12060546875,-0.0712890625,0.457275390625,-30.25,10.1875,3.75,34.078125
548,-0.12060546875,-0.0712890625,0.457275390625,-28.125,13.8125,4.125,34.078125
550,-0.150634765625,-0.078369140625,0.4345703125,-28.125,13.8125,4.125,34.0703125
552,-0.150634765625,-0.078369140625,0.4345703125,-28.125,13.8125,4.125,34.0703125
554,-0.176025390625,-0.0810546875,0.412353515625,-26.1875,17.5625,5.1875,34.0703125
555,-0.176025390625,-0.0810546875,0.412353515625,-26.1875,17.5625,5.1875,34.0703125
557,-0.1796875,-0.0771484375,0.38525390625,-24.5625,21.25,5.8125,34.0703125
559,-0.1796875,-0.0771484375,0.38525390625,-24.5625,21.25,5.8125,34.0703125
561,-0.172607421875,-0.06982421875,0.35302734375,-23.6875,26.1875,6.5625,34.0703125
563,-0.172607421875,-0.06982421875,0.35302734375,-23.6875,26.1875,6.5625,34.0703125
565,-0.172607421875,-0.06982421875,0.35302734375,-23.6875,26.1875,6.5625,34.0703125
567,-0.1787109375,-0.0625,0.32568359375,-24.8125,31.1875,8.1875,34.0703125
570,-0.1787109375,-0.0625,0.32568359375,-24.8125,35.375,9.6875,34.0703125
572,-0.18505859375,-0.051025390625,0.304443359375,-28.0625,35.375,9.6875,34.0703125
574,-0.18505859375,-0.051025390625,0.304443359375,-28.0625,35.375,9.6875,34.0703125
576,-0.1923828125,-0.04150390625,0.28857421875,-31.875,39.5,10.8125,34.0703125
578,-0.1923828125,-0.04150390625,0.28857421875,-31.875,39.5,10.8125,34.0703125
579,-0.20068359375,-0.04296875,0.29052734375,-34.375,44.3125,11.0,34.0703125
581,-0.20068359375,-0.04296875,0.29052734375,-34.375,44.3125,11.0,34.0703125
583,-0.207763671875,-0.0595703125,0.294677734375,-35.625,50.125,10.8125,34.0703125
585,-0.207763671875,-0.0595703125,0.294677734375,-35.625,50.125,10.8125,34.0703125
587,-0.207763671875,-0.0595703125,0.294677734375,-35.625,50.125,10.8125,34.0703125
589,-0.2041015625,-0.08984375,0.288818359375,-36.4375,56.875,10.25,34.0703125
592,-0.2041015625,-0.08984375,0.288818359375,-36.4375,56.875,10.25,34.0703125
594,-0.197265625,-0.122802734375,0.2861328125,-36.0,64.0,9.125,34.0703125
595,-0.197265625,-0.122802734375,0.2861328125,-36.0,64.0,9.125,34.0703125
597,-0.1953125,-0.15576171875,0.287109375,-34.1875,71.1875,7.375,34.0703125
600,-0.1953125,-0.15576171875,0.287109375,-34.1875,71.1875,7.375,34.0703125
602,-0.197265625,-0.18115234375,0.29638671875,-31.125,77.625,4.875,34.0703125
603,-0.197265625,-0.18115234375,0.29638671875,-31.125,77.625,4.875,34.0703125
605,-0.197265625,-0.24365234375,0.315185546875,-26.125,83.9375,2.1875,34.0703125
607,-0.211669921875,-0.19775390625,0.315185546875,-26.125,83.9375,2.1875,34.0703125
609,-0.211669921875,-0.19775390625,0.315185546875,-26.125,83.9375,2.1875,34.0703125
611,-0.236083984375,-0.208984375,0.3427734375,-19.4375,89.75,-0.875,34.0703125
613,-0.236083984375,-0.208984375,0.3427734375,-19.4375,89.75,-0.875,34.0703125
616,-0.2568359375,-0.209716796875,0.375244140625,-11.375,95.0,-3.875,34.0703125
618,-0.2568359375,-0.209716796875,0.375244140625,-11.375,95.0,-3.875,34.0703125
619,-0.272216796875,-0.202392578125,0.4130859375,-2.3125,99.25,-6.875,34.0703125
621,-0.272216796875,-0.202392578125,0.4130859375,-2.3125,99.25,-6.875,34.0703125
623,-0.28369140625,-0.18994140625,0.4560546875,8.375,103.5,-9.6875,34.0703125
625,-0.28369140625,-0.18994140625,0.4560546875,8.375,103.5,-9.6875,34.0703125
627,-0.28369140625,-0.18994140625,0.4560546875,8.375,103.5,-9.6875,34.0703125
629,-0.296630859375,-0.17724609375,0.5048828125,21.25,107.125,-12.375,34.0703125
631,-0.296630859375,-0.17724609375,0.5048828125,21.25,107.125,-12.375,34.0703125
633,-0.3125,-0.162353515625,0.563232421875,35.5625,109.75,-14.6875,34.0703125
635,-0.3125,-0.162353515625,0.563232421875,35.5625,109.75,-14.6875,34.0703125
637,-0.325927734375,-0.148193359375,0.607421875,48.5625,111.8125,-16.8125,34.0703125
640,-0.325927734375,-0.148193359375,0.607421875,48.5625,111.8125,-16.8125,34.0703125
642,-0.334716796875,-0.133544921875,0.6240234375,55.8125,115.75,-18.1875,34.0703125
643,-0.334716796875,-0.133544921875,0.6240234375,55.8125,115.75,-18.1875,34.0703125
645,-0.338623046875,-0.116455078125,0.615478515625,53.25,121.25,-18.0,34.0703125
647,-0.338623046875,-0.116455078125,0.615478515625,53.25,121.25,-18.0,34.0703125
649,-0.338623046875,-0.116455078125,0.615478515625,53.25,121.25,-18.0,34.0703125
651,-0.332763671875,-0.09228515625,0.583984375,41.0,126.5625,-16.375,34.0703125
653,-0.332763671875,-0.09228515625,0.583984375,41.0,126.5625,-16.375,34.0703125
655,-0.3193359375,-0.063720703125,0.544189453125,22.375,132.25,-15.0625,34.0703125
657,-0.3193359375,-0.063720703125,0.544189453125,22.375,132.25,-15.0625,34.0703125
660,-0.32421875,-0.031982421875,0.53271484375,3.875,135.875,-13.1875,34.0703125
662,-0.32421875,-0.031982421875,0.53271484375,3.875,135.875,-13.1875,34.0703125
664,-0.331298828125,-0.0048828125,0.560546875,-7.625,134.875,-12.5,34.0703125
666,-0.331298828125,-0.0048828125,0.560546875,-7.625,134.875,-12.5,34.0703125
668,-0.330322265625,0.01416015625,0.611328125,-12.625,132.0625,-14.3125,34.0703125
670,-0.330322265625,0.01416015625,0.611328125,-12.625,132.0625,-14.3125,34.0703125
672,-0.330322265625,0.01123046875,0.680908203125,-15.9375,131.9375,-15.8125,34.0703125
674,-0.341064453125,0.01123046875,0.680908203125,-15.9375,131.9375,-15.8125,34.0703125
676,-0.341064453125,0.01123046875,0.680908203125,-15.9375,131.9375,-15.8125,34.0703125
678,-0.3515625,-0.0068359375,0.75341796875,-21.1875,134.25,-15.9375,34.0703125
680,-0.3515625,-0.0068359375,0.75341796875,-21.1875,134.25,-15.9375,34.0703125
682,-0.359375,-0.02783203125,0.815185546875,-28.3125,137.4375,-14.5,34.0703125
684,-0.359375,-0.02783203125,0.815185546875,-28.3125,137.4375,-14.5,34.0703125
686,-0.3642578125,-0.041748046875,0.860107421875,-35.25,140.9375,-12.3125,34.0703125
688,-0.3642578125,-0.041748046875,0.860107421875,-35.25,140.9375,-12.3125,34.0703125
690,-0.36767578125,-0.044189453125,0.89599609375,-40.25,144.375,-10.1875,34.07421875
692,-0.36767578125,-0.044189453125,0.89599609375,-40.25,144.375,-10.1875,34.07421875
694,-0.36767578125,-0.044189453125,0.89599609375,-40.25,144.375,-10.1875,34.07421875
695,-0.37353515625,-0.04150390625,0.930908203125,-42.5625,146.875,-8.125,34.07421875
697,-0.37353515625,-0.04150390625,0.930908203125,-42.5625,146.875,-8.125,34.07421875
699,-0.380126953125,-0.041748046875,0.967041015625,-42.25,148.5625,-6.375,34.07421875
701,-0.380126953125,-0.041748046875,0.967041015625,-42.25,148.5625,-6.375,34.07421875
703,-0.38232421875,-0.045166015625,1.00537109375,-40.25,149.4375,-4.875,34.07421875
706,-0.38232421875,-0.045166015625,1.00537109375,-40.25,149.4375,-4.875,34.07421875
708,-0.376953125,-0.051513671875,1.040283203125,-37.4375,150.3125,-4.375,34.07421875
710,-0.376953125,-0.051513671875,1.040283203125,-37.4375,150.3125,-4.375,34.07421875
712,-0.376953125,-0.051513671875,1.069091796875,-34.25,151.75,-4.125,34.07421875
714,-0.370361328125,-0.062255859375,1.069091796875,-34.25,151.75,-4.125,34.07421875
716,-0.370361328125,-0.062255859375,1.069091796875,-34.25,151.75,-4.125,34.07421875
718,-0.365478515625,-0.0654296875,1.0947265625,-30.75,153.25,-4.5,34.07421875
719,-0.365478515625,-0.0654296875,1.0947265625,-30.75,153.25,-4.5,34.07421875
721,-0.363037109375,-0.060791015625,1.116943359375,-26.6875,154.3125,-5.25,34.07421875
723,-0.363037109375,-0.060791015625,1.116943359375,-26.6875,154.3125,-5.25,34.07421875
725,-0.36279296875,-0.05126953125,1.139404296875,-22.125,155.0625,-6.6875,34.07421875
728,-0.36279296875,-0.05126953125,1.139404296875,-22.125,155.0625,-6.6875,34.07421875
730,-0.370849609375,-0.0458984375,1.162353515625,-17.3125,155.3125,-8.125,34.07421875
732,-0.370849609375,-0.0458984375,1.162353515625,-17.3125,155.3125,-8.125,34.07421875
734,-0.370849609375,-0.0458984375,1.162353515625,-17.3125,155.3125,-8.125,34.07421875
736,-0.384033203125,-0.04443359375,1.180908203125,-12.9375,155.0625,-9.25,34.07421875
737,-0.384033203125,-0.04443359375,1.180908203125,-12.9375,155.0625,-9.25,34.07421875
739,-0.3935546875,-0.0419921875,1.194580078125,-9.1875,154.625,-10.0,34.07421875
741,-0.3935546875,-0.0419921875,1.194580078125,-9.1875,154.625,-10.0,34.07421875
743,-0.39697265625,-0.041259765625,1.2109375,-6.4375,154.0625,-10.25,34.07421875
745,-0.39697265625,-0.041259765625,1.2109375,-6.4375,154.0625,-10.25,34.07421875
748,-0.400146484375,-0.04052734375,1.222900390625,-4.5,153.3125,-10.0,34.07421875
750,-0.400146484375,-0.04052734375,1.222900390625,-4.5,153.3125,-10.0,34.07421875
752,-0.404296875,-0.042236328125,1.23193359375,-4.25,152.8125,-9.4375,34.07421875
754,-0.404296875,-0.042236328125,1.23193359375,-4.25,152.8125,-9.4375,34.07421875
756,-0.404296875,-0.042236328125,1.23193359375,-4.25,152.8125,-9.4375,34.07421875
758,-0.409912109375,-0.041748046875,1.24462890625,-6.25,152.3125,-8.6875,34.07421875
760,-0.409912109375,-0.041748046875,1.24462890625,-6.25,152.3125,-8.6875,34.07421875
762,-0.416748046875,-0.04150390625,1.256591796875,-10.0,151.125,-8.0625,34.07421875
764,-0.416748046875,-0.04150390625,1.256591796875,-10.0,151.125,-8.0625,34.07421875
766,-0.42138671875,-0.04296875,1.262939453125,-15.0,149.75,-7.375,34.07421875
768,-0.42138671875,-0.04296875,1.262939453125,-15.0,149.75,-7.375,34.07421875
770,-0.4267578125,-0.046630859375,1.2666015625,-20.4375,148.0,-6.6875,34.07421875
772,-0.4267578125,-0.046630859375,1.2666015625,-20.4375,148.0,-6.6875,34.07421875
774,-0.432861328125,-0.051025390625,1.264892578125,-25.875,145.8125,-5.8125,34.07421875
776,-0.432861328125,-0.051025390625,1.264892578125,-25.875,145.8125,-5.8125,34.07421875
778,-0.432861328125,-0.051025390625,1.264892578125,-25.875,145.8125,-5.8125,34.07421875
780,-0.4423828125,-0.05712890625,1.258056640625,-31.0625,142.8125,-4.9375,34.07421875
782,-0.4423828125,-0.05712890625,1.258056640625,-31.0625,142.8125,-4.9375,34.07421875
784,-0.45361328125,-0.066650390625,1.25048828125,-35.8125,139.5625,-3.75,34.07421875
786,-0.45361328125,-0.066650390625,1.25048828125,-35.8125,139.5625,-3.75,34.07421875
788,-0.464111328125,-0.080810546875,1.244873046875,-40.25,136.5,-2.3125,34.07421875
789,-0.464111328125,-0.080810546875,1.244873046875,-40.25,136.5,-2.3125,34.07421875
791,-0.464111328125,-0.080810546875,1.244873046875,-40.25,136.5,-1.0,34.07421875
794,-0.46923828125,-0.0986328125,1.244140625,-43.875,134.0625,-1.0,34.07421875
796,-0.46923828125,-0.0986328125,1.244140625,-46.3125,132.3125,0.1875,34.07421875
798,-0.46533203125,-0.115478515625,1.249755859375,-46.3125,132.3125,0.1875,34.07421875
800,-0.46533203125,-0.115478515625,1.249755859375,-46.3125,132.3125,0.1875,34.07421875
802,-0.458984375,-0.12939453125,1.25927734375,-47.0,130.8125,1.0,34.07421875
803,-0.458984375,-0.12939453125,1.25927734375,-47.0,130.8125,1.0,34.07421875
805,-0.45361328125,-0.139404296875,1.269775390625,-45.75,129.5,1.0625,34.07421875
807,-0.45361328125,-0.139404296875,1.269775390625,-45.75,129.5,1.0625,34.07421875
809,-0.44677734375,-0.148193359375,1.281005859375,-43.3125,128.875,0.9375,34.07421875
811,-0.44677734375,-0.148193359375,1.281005859375,-43.3125,128.875,0.9375,34.07421875
813,-0.44677734375,-0.148193359375,1.281005859375,-43.3125,128.875,0.9375,34.07421875
816,-0.4365234375,-0.156005859375,1.2919921875,-40.125,128.5625,0.3125,34.07421875
818,-0.4365234375,-0.156005859375,1.2919921875,-40.125,128.5625,0.3125,34.07421875
820,-0.42919921875,-0.162109375,1.30078125,-36.1875,128.25,-0.5,34.07421875
821,-0.42919921875,-0.162109375,1.30078125,-36.1875,128.25,-0.5,34.07421875
823,-0.42822265625,-0.16845703125,1.31005859375,-32.1875,127.25,-0.875,34.07421875
825,-0.42822265625,-0.16845703125,1.31005859375,-32.1875,127.25,-0.875,34.07421875
827,-0.421630859375,-0.171630859375,1.31396484375,-28.6875,125.875,-1.5625,34.07421875
830,-0.421630859375,-0.171630859375,1.31396484375,-28.6875,125.875,-1.5625,34.07421875
831,-0.412353515625,-0.17529296875,1.31103515625,-25.875,125.0,-2.875,34.07421875
833,-0.412353515625,-0.17529296875,1.31103515625,-25.875,125.0,-2.875,34.0859375
835,-0.412353515625,-0.17529296875,1.31103515625,-25.875,125.0,-2.875,34.0859375
838,-0.40966796875,-0.179931640625,1.299072265625,-23.875,124.8125,-4.5,34.0859375
840,-0.40966796875,-0.179931640625,1.299072265625,-23.875,124.8125,-4.5,34.0859375
842,-0.413818359375,-0.18505859375,1.284912109375,-23.4375,124.4375,-6.0625,34.0859375
843,-0.413818359375,-0.18505859375,1.284912109375,-23.4375,124.4375,-6.0625,34.0859375
846,-0.416015625,-0.19384765625,1.24609375,-26.5,124.75,-7.375,34.0859375
847,-0.416015625,-0.19384765625,1.24609375,-26.5,124.75,-7.375,34.0859375
849,-0.422119140625,-0.196533203125,1.235595703125,-33.0625,125.3125,-7.75,34.0859375
851,-0.422119140625,-0.196533203125,1.235595703125,-33.0625,125.3125,-7.75,34.0859375
853,-0.422119140625,-0.196533203125,1.234375,-36.0625,121.875,-7.8125,34.0859375
856,-0.42822265625,-0.187744140625,1.234375,-36.0625,121.875,-7.8125,34.0859375
858,-0.42822265625,-0.187744140625,1.234375,-36.0625,121.875,-8.25,34.0859375
860,-0.436767578125,-0.180419921875,1.2294921875,-38.125,120.25,-8.25,34.0859375
862,-0.436767578125,-0.180419921875,1.2294921875,-38.125,120.25,-8.25,34.0859375
864,-0.44921875,-0.177734375,1.263671875,-36.5,117.3125,-8.8125,34.0859375
866,-0.44921875,-0.177734375,1.263671875,-36.5,117.3125,-8.8125,34.0859375
869,-0.45068359375,-0.18603515625,1.235107421875,-36.125,116.75,-9.3125,34.0859375
871,-0.45068359375,-0.18603515625,1.235107421875,-36.125,116.75,-9.1875,34.0859375
873,-0.4580078125,-0.197265625,1.260498046875,-36.25,118.0,-9.1875,34.0859375
875,-0.4580078125,-0.197265625,1.260498046875,-36.25,118.0,-9.1875,34.0859375
877,-0.452880859375,-0.206298828125,1.2978515625,-28.125,113.625,-9.625,34.0859375
879,-0.452880859375,-0.206298828125,1.2978515625,-28.125,113.625,-9.625,34.0859375
881,-0.447265625,-0.20849609375,1.3173828125,-17.1875,111.0,-10.5625,34.0859375
884,-0.447265625,-0.20849609375,1.3173828125,-17.1875,111.0,-10.5625,34.0859375
886,-0.44873046875,-0.20654296875,1.30419921875,-10.375,112.6875,-11.0,34.0859375
888,-0.44873046875,-0.20654296875,1.30419921875,-10.375,112.6875,-11.0,34.0859375
890,-0.4560546875,-0.2001953125,1.3056640625,-7.625,115.375,-11.5,34.0859375
892,-0.4560546875,-0.2001953125,1.3056640625,-7.625,115.375,-11.5,34.0859375
894,-0.464111328125,-0.190185546875,1.315673828125,-4.875,114.1875,-12.375,34.0859375
896,-0.464111328125,-0.190185546875,1.315673828125,-4.875,114.1875,-12.375,34.0859375
898,-0.464111328125,-0.190185546875,1.315673828125,-1.75,111.0625,-13.4375,34.0859375
900,-0.476806640625,-0.17626953125,1.325439453125,-1.75,111.0625,-13.4375,34.0859375
902,-0.476806640625,-0.17626953125,1.325439453125,-1.75,111.0625,-13.4375,34.0859375
904,-0.48876953125,-0.169189453125,1.3349609375,0.3125,108.125,-14.5,34.0859375
906,-0.48876953125,-0.169189453125,1.3349609375,0.3125,108.125,-14.5,34.0859375
908,-0.493408203125,-0.1650390625,1.343994140625,-0.25,105.9375,-15.0625,34.0859375
910,-0.493408203125,-0.1650390625,1.343994140625,-0.25,105.9375,-15.0625,34.0859375
912,-0.4970703125,-0.15966796875,1.386962890625,-0.5,101.875,-15.125,34.0859375
914,-0.4970703125,-0.15966796875,1.386962890625,-0.5,101.875,-15.125,34.0859375
916,-0.499755859375,-0.155517578125,1.413818359375,3.25,93.75,-14.9375,34.0859375
918,-0.499755859375,-0.155517578125,1.413818359375,3.25,93.75,-14.9375,34.0859375
920,-0.50634765625,-0.1533203125,1.385009765625,2.625,89.5,-14.0,34.0859375
922,-0.50634765625,-0.1533203125,1.385009765625,2.625,89.5,-14.0,34.0859375
924,-0.50634765625,-0.1533203125,1.385009765625,-13.375,87.0,-12.0,34.0859375
926,-0.513916015625,-0.154541015625,1.35595703125,-1.75,87.0,-12.0,34.0859375
929,-0.513916015625,-0.154541015625,1.35595703125,-1.75,87.0,-12.0,34.0859375
930,-0.5166015625,-0.156982421875,1.33203125,-6.8125,82.5,-9.6875,34.0859375
933,-0.5166015625,-0.156982421875,1.33203125,-6.8125,82.5,-9.6875,34.0859375
934,-0.5166015625,-0.1552734375,1.336669921875,-8.125,75.0,-7.75,34.0859375
936,-0.5166015625,-0.1552734375,1.336669921875,-8.125,75.0,-7.75,34.0859375
938,-0.51318359375,-0.15576171875,1.325439453125,-7.5625,67.9375,-6.4375,34.0859375
940,-0.51318359375,-0.15576171875,1.325439453125,-7.5625,67.9375,-6.4375,34.0859375
942,-0.507568359375,-0.1591796875,1.302978515625,-9.0,64.0,-4.75,34.0859375
944,-0.507568359375,-0.1591796875,1.302978515625,-9.0,64.0,-4.75,34.0859375
946,-0.507568359375,-0.1591796875,1.302978515625,-9.0,64.0,-4.75,34.0859375
948,-0.497802734375,-0.15966796875,1.285400390625,-10.25,60.125,-2.5,34.0859375
950,-0.497802734375,-0.15966796875,1.285400390625,-10.25,60.125,-2.5,34.0859375
952,-0.485107421875,-0.155029296875,1.261474609375,-9.75,55.5,-1.1875,34.0859375
954,-0.485107421875,-0.155029296875,1.261474609375,-9.75,55.5,-1.1875,34.0859375
956,-0.475341796875,-0.150634765625,1.214111328125,-9.6875,52.5,-0.375,34.0859375
958,-0.475341796875,-0.150634765625,1.214111328125,-9.6875,52.5,-0.375,34.0859375
960,-0.475341796875,-0.150634765625,1.1640625,-11.4375,51.5625,0.125,34.0859375
962,-0.4716796875,-0.149658203125,1.1640625,-11.4375,51.5625,0.125,34.0859375
964,-0.4716796875,-0.149658203125,1.1640625,-11.4375,51.5625,0.125,34.0859375
966,-0.46923828125,-0.147216796875,1.133056640625,-13.1875,50.4375,0.5,34.0859375
968,-0.46923828125,-0.147216796875,1.133056640625,-13.1875,50.4375,0.5,34.0859375
970,-0.4697265625,-0.145263671875,1.103271484375,-13.9375,48.5,0.5,34.0859375
971,-0.4697265625,-0.145263671875,1.103271484375,-13.9375,48.5,0.5,34.0859375
974,-0.471435546875,-0.144287109375,1.076904296875,-16.125,47.9375,0.4375,34.12109375
976,-0.471435546875,-0.144287109375,1.076904296875,-16.125,47.9375,0.4375,34.12109375
978,-0.47705078125,-0.14892578125,1.06005859375,-19.4375,47.625,0.4375,34.12109375
980,-0.47705078125,-0.14892578125,1.06005859375,-19.4375,47.625,0.4375,34.12109375
982,-0.47705078125,-0.14892578125,1.06005859375,-19.4375,47.625,0.1875,34.12109375
984,-0.48779296875,-0.159423828125,1.041259765625,-24.1875,47.875,0.1875,34.12109375
986,-0.48779296875,-0.159423828125,1.041259765625,-24.1875,47.875,0.1875,34.12109375
988,-0.5029296875,-0.17236328125,1.034423828125,-28.8125,47.5,-0.1875,34.12109375
990,-0.5029296875,-0.17236328125,1.034423828125,-28.8125,47.5,-0.1875,34.12109375
991,-0.51904296875,-0.184814453125,1.02978515625,-32.4375,46.1875,-0.75,34.12109375
993,-0.51904296875,-0.184814453125,1.02978515625,-32.4375,46.1875,-0.75,34.12109375
996,-0.5283203125,-0.198486328125,1.023193359375,-34.875,44.5625,-1.4375,34.12109375
998,-0.5283203125,-0.198486328125,1.023193359375,-34.875,44.5625,-1.4375,34.12109375
1000,-0.531005859375,-0.213623046875,1.015380859375,-35.9375,43.3125,-2.125,34.12109375
1002,-0.531005859375,-0.213623046875,1.015380859375,-35.9375,43.3125,-2.125,34.12109375
1004,-0.531005859375,-0.213623046875,1.015380859375,-35.9375,43.3125,-2.125,34.12109375
1005,-0.53076171875,-0.231201171875,1.01318359375,-35.875,42.3125,-3.0,34.12109375
1007,-0.53076171875,-0.231201171875,1.01318359375,-35.875,42.3125,-3.0,34.12109375
1010,-0.53076171875,-0.247314453125,1.012451171875,-34.8125,41.9375,-3.875,34.12109375
1011,-0.53076171875,-0.247314453125,1.012451171875,-34.8125,41.9375,-3.875,34.12109375
1013,-0.530517578125,-0.26025390625,1.012939453125,-33.25,41.875,-4.5,34.12109375
1015,-0.530517578125,-0.26025390625,1.012939453125,-33.25,41.875,-4.5,34.12109375
1018,-0.530029296875,-0.266845703125,1.010009765625,-31.25,42.0,-5.125,34.12109375
1020,-0.530029296875,-0.266845703125,1.010009765625,-31.25,42.0,-5.125,34.12109375
1022,-0.530029296875,-0.266845703125,1.010009765625,-31.25,42.0,-5.125,34.12109375
1023,-0.524658203125,-0.26513671875,1.0068359375,-28.3125,42.6875,-5.8125,34.12109375
1025,-0.524658203125,-0.26513671875,1.0068359375,-28.3125,42.6875,-5.8125,34.12109375
1027,-0.516357421875,-0.25830078125,0.99951171875,-24.8125,43.5,-6.6875,34.12109375
1029,-0.516357421875,-0.25830078125,0.99951171875,-24.8125,43.5,-6.6875,34.12109375
1031,-0.508056640625,-0.25048828125,0.9951171875,-21.1875,44.3125,-7.9375,34.12109375
1033,-0.508056640625,-0.25048828125,0.9951171875,-21.1875,44.3125,-7.9375,34.12109375
1035,-0.508056640625,-0.237060546875,0.99267578125,-17.1875,45.1875,-9.5625,34.12109375
1037,-0.50048828125,-0.237060546875,0.99267578125,-17.1875,45.1875,-9.5625,34.12109375
1040,-0.50048828125,-0.220947265625,0.9921875,-13.3125,45.75,-11.0,34.12109375
1041,-0.50048828125,-0.220947265625,0.9921875,-13.3125,45.75,-11.0,34.12109375
1043,-0.50048828125,-0.220947265625,0.9921875,-13.3125,45.75,-11.0,34.12109375
1046,-0.50341796875,-0.203125,0.9921875,-9.5,45.75,-12.5,34.12109375
1049,-0.502685546875,-0.189453125,0.99169921875,-6.625,45.875,-13.875,34.12109375
1051,-0.502685546875,-0.189453125,0.99169921875,-6.625,45.875,-13.875,34.12109375
1053,-0.502685546875,-0.189453125,0.99169921875,-6.625,45.875,-15.25,34.12109375
1055,-0.5,-0.176025390625,0.990234375,-5.125,45.4375,-15.25,34.12109375
1056,-0.5,-0.176025390625,0.990234375,-5.125,45.4375,-15.25,34.12109375
1059,-0.4970703125,-0.162841796875,0.986328125,-5.1875,45.125,-16.4375,34.12109375
1061,-0.4970703125,-0.162841796875,0.986328125,-5.1875,45.125,-16.4375,34.12109375
1063,-0.498046875,-0.15283203125,0.984375,-6.25,44.6875,-17.4375,34.12109375
1065,-0.498046875,-0.15283203125,0.984375,-6.25,44.6875,-17.4375,34.12109375
1067,-0.500244140625,-0.1455078125,0.98291015625,-8.625,43.8125,-17.75,34.12109375
1069,-0.500244140625,-0.1455078125,0.98291015625,-8.625,43.8125,-17.75,34.12109375
1071,-0.501953125,-0.143310546875,0.982666015625,-11.4375,42.875,-17.6875,34.12109375
1073,-0.501953125,-0.143310546875,0.982666015625,-11.4375,42.875,-17.6875,34.12109375
1075,-0.501953125,-0.143310546875,0.982666015625,-14.5625,41.5625,-17.375,34.12109375
1077,-0.5087890625,-0.14453125,0.982666015625,-14.5625,41.5625,-17.375,34.12109375
1079,-0.5087890625,-0.14453125,0.982666015625,-14.5625,41.5625,-17.375,34.12109375
1081,-0.519775390625,-0.150390625,0.983154296875,-17.9375,40.4375,-16.75,34.12109375
1083,-0.519775390625,-0.150390625,0.983154296875,-17.9375,40.4375,-16.75,34.12109375
1085,-0.529296875,-0.15966796875,0.98583984375,-20.875,39.4375,-16.1875,34.12109375
1087,-0.529296875,-0.15966796875,0.98583984375,-20.875,39.4375,-16.1875,34.12109375
1089,-0.538330078125,-0.173095703125,0.994384765625,-23.6875,38.3125,-15.5,34.12109375
1091,-0.538330078125,-0.173095703125,0.994384765625,-23.6875,38.3125,-15.5,34.12109375
1093,-0.550537109375,-0.18603515625,1.003173828125,-26.5625,36.6875,-15.0,34.12109375
1095,-0.550537109375,-0.18603515625,1.003173828125,-26.5625,36.6875,-15.0,34.12109375
1097,-0.5576171875,-0.197509765625,1.01171875,-28.625,34.5625,-14.375,34.12109375
1099,-0.5576171875,-0.197509765625,1.01171875,-28.625,34.5625,-14.375,34.12109375
1101,-0.5576171875,-0.197509765625,1.01171875,-28.625,34.5625,-14.375,34.12109375
1103,-0.56640625,-0.2060546875,1.01318359375,-29.1875,32.0625,-13.9375,34.12109375
1105,-0.56640625,-0.2060546875,1.01318359375,-29.1875,32.0625,-13.9375,34.12109375
1107,-0.572998046875,-0.20751953125,1.013427734375,-28.5,29.1875,-13.625,34.12109375
1110,-0.572998046875,-0.20751953125,1.013427734375,-28.5,29.1875,-13.625,34.12109375
1112,-0.5712890625,-0.202880859375,1.013671875,-26.5,26.9375,-13.5625,34.12109375
1114,-0.5712890625,-0.202880859375,1.013671875,-26.5,26.9375,-13.5625,34.12109375
1116,-0.562744140625,-0.198486328125,1.005859375,-23.6875,25.0,-13.625,34.078125
1117,-0.562744140625,-0.198486328125,1.005859375,-23.6875,25.0,-13.625,34.078125
1119,-0.553466796875,-0.199462890625,0.992431640625,-20.5,23.625,-13.9375,34.078125
1121,-0.553466796875,-0.199462890625,0.992431640625,-20.5,23.625,-13.9375,34.078125
1123,-0.553466796875,-0.199462890625,0.992431640625,-20.5,23.625,-13.9375,34.078125
1125,-0.544189453125,-0.1982421875,0.979248046875,-16.75,22.6875,-13.8125,34.078125
1127,-0.544189453125,-0.1982421875,0.979248046875,-16.75,22.6875,-13.8125,34.078125
1129,-0.53662109375,-0.192626953125,0.962158203125,-12.6875,22.0,-13.125,34.078125
1132,-0.53662109375,-0.192626953125,0.962158203125,-12.6875,22.0,-13.125,34.078125
1134,-0.528076171875,-0.18359375,0.9453125,-9.0,21.5,-12.5,34.078125
1136,-0.528076171875,-0.18359375,0.9453125,-9.0,21.5,-12.5,34.078125
1138,-0.51611328125,-0.1689453125,0.93603515625,-6.1875,21.4375,-12.0625,34.078125
1140,-0.51611328125,-0.1689453125,0.93603515625,-6.1875,21.4375,-12.0625,34.078125
1141,-0.510498046875,-0.155517578125,0.9267578125,-4.0625,21.25,-12.0625,34.078125
1143,-0.510498046875,-0.155517578125,0.9267578125,-4.0625,21.25,-12.0625,34.078125
1146,-0.510498046875,-0.14453125,0.917724609375,-2.6875,21.1875,-11.75,34.078125
1148,-0.506591796875,-0.14453125,0.917724609375,-2.6875,21.1875,-11.75,34.078125
1150,-0.506591796875,-0.14453125,0.917724609375,-2.6875,21.1875,-11.75,34.078125
1153,-0.5,-0.13720703125,0.907470703125,-2.0,21.3125,-11.5,34.078125
1156,-0.4931640625,-0.1328125,0.897216796875,-1.6875,21.4375,-11.0625,34.078125
1159,-0.4931640625,-0.1328125,0.897216796875,-1.6875,21.4375,-11.0625,34.078125
1161,-0.489990234375,-0.126220703125,0.891845703125,-2.125,21.625,-10.8125,34.078125
1163,-0.489990234375,-0.126220703125,0.891845703125,-2.125,21.625,-10.8125,34.078125
1165,-0.4873046875,-0.117919921875,0.88916015625,-3.25,21.8125,-10.1875,34.078125
1167,-0.4873046875,-0.117919921875,0.88916015625,-3.25,21.8125,-10.1875,34.078125
1169,-0.4853515625,-0.1103515625,0.8828125,-4.6875,22.4375,-9.9375,34.078125
1171,-0.4853515625,-0.1103515625,0.8828125,-4.6875,22.4375,-9.9375,34.078125
1173,-0.488037109375,-0.102294921875,0.87744140625,-6.375,23.0625,-9.6875,34.078125
1175,-0.488037109375,-0.102294921875,0.87744140625,-6.375,23.0625,-9.6875,34.078125
1177,-0.488037109375,-0.102294921875,0.87744140625,-6.375,23.75,-9.4375,34.078125
1179,-0.493408203125,-0.099609375,0.873291015625,-8.25,23.75,-9.4375,34.078125
1181,-0.4990234375,-0.1005859375,0.87353515625,-10.125,24.0625,-8.9375,34.078125
1183,-0.4990234375,-0.1005859375,0.87353515625,-10.125,24.0625,-8.9375,34.078125
1186,-0.5615234375,-0.103759765625,0.874755859375,-12.0,24.0,-7.9375,34.078125
1188,-0.50390625,-0.103759765625,0.874755859375,-12.0,24.0,-7.9375,34.078125
1190,-0.50390625,-0.103759765625,0.874755859375,-12.0,24.0,-7.9375,34.078125
1191,-0.51123046875,-0.108154296875,0.877685546875,-14.0,23.625,-6.8125,34.078125
1193,-0.51123046875,-0.108154296875,0.877685546875,-14.0,23.625,-6.8125,34.078125
1195,-0.514892578125,-0.115478515625,0.87841796875,-16.125,23.0,-5.6875,34.078125
1197,-0.514892578125,-0.115478515625,0.87841796875,-16.125,23.0,-5.6875,34.078125
1199,-0.51513671875,-0.124755859375,0.877197265625,-18.3125,22.0625,-4.75,34.078125
1201,-0.51513671875,-0.124755859375,0.877197265625,-18.3125,22.0625,-4.75,34.078125
1204,-0.514892578125,-0.130615234375,0.87744140625,-19.875,20.8125,-3.5625,34.078125
1206,-0.514892578125,-0.130615234375,0.87744140625,-19.875,20.8125,-3.5625,34.078125
1207,-0.514892578125,-0.130615234375,0.87744140625,-19.875,20.8125,-3.5625,34.078125
1210,-0.51025390625,-0.1337890625,0.87646484375,-21.1875,19.5,-2.375,34.078125
1211,-0.51025390625,-0.1337890625,0.87646484375,-21.1875,19.5,-2.375,34.078125
1213,-0.504638671875,-0.139892578125,0.8759765625,-22.0,18.3125,-1.4375,34.078125
1215,-0.504638671875,-0.139892578125,0.8759765625,-22.0,18.3125,-1.4375,34.078125
1217,-0.49560546875,-0.147705078125,0.87646484375,-22.375,17.25,-0.8125,34.078125
1219,-0.49560546875,-0.147705078125,0.87646484375,-22.375,17.25,-0.8125,34.078125
1221,-0.49560546875,-0.147705078125,0.87646484375,-22.875,16.5625,-0.25,34.078125
1223,-0.484130859375,-0.15576171875,0.876953125,-22.875,16.5625,-0.25,34.078125
1225,-0.484130859375,-0.15576171875,0.876953125,-22.875,16.0625,0.125,34.078125
1227,-0.4775390625,-0.162109375,0.8759765625,-22.875,16.0625,0.125,34.078125
1229,-0.4775390625,-0.162109375,0.8759765625,-22.875,16.0625,0.125,34.078125
1231,-0.468017578125,-0.16552734375,0.87841796875,-21.875,15.8125,0.3125,34.078125
1233,-0.468017578125,-0.16552734375,0.87841796875,-21.875,15.8125,0.3125,34.078125
1235,-0.45556640625,-0.166015625,0.880859375,-19.8125,16.25,0.5625,34.078125
1237,-0.45556640625,-0.166015625,0.880859375,-19.8125,16.25,0.5625,34.078125
1239,-0.43994140625,-0.16357421875,0.88134765625,-17.1875,17.75,0.625,34.078125
1242,-0.43994140625,-0.16357421875,0.88134765625,-17.1875,17.75,0.625,34.078125
1245,-0.425048828125,-0.160888671875,0.88232421875,-14.3125,19.875,0.6875,34.078125
1247,-0.425048828125,-0.160888671875,0.88232421875,-14.3125,19.875,0.6875,34.078125
1249,-0.416259765625,-0.156005859375,0.884033203125,-12.3125,22.875,0.5625,34.078125
1251,-0.416259765625,-0.156005859375,0.884033203125,-12.3125,22.875,0.5625,34.078125
1253,-0.4111328125,-0.1513671875,0.8876953125,-11.0625,26.25,0.0,34.078125
1255,-0.4111328125,-0.1513671875,0.8876953125,-11.0625,26.25,0.0,34.078125
1257,-0.407958984375,-0.1494140625,0.896728515625,-11.375,29.5,-0.5625,34.09375
1259,-0.407958984375,-0.1494140625,0.896728515625,-11.375,29.5,-0.5625,34.09375
1260,-0.407958984375,-0.1494140625,0.896728515625,-11.375,29.5,-0.5625,34.09375
1263,-0.4072265625,-0.147216796875,0.91064453125,-12.375,32.4375,-0.9375,34.09375
1265,-0.4072265625,-0.147216796875,0.91064453125,-12.375,32.4375,-0.9375,34.09375
1267,-0.406982421875,-0.141845703125,0.925537109375,-13.25,35.25,-0.875,34.09375
1269,-0.406982421875,-0.141845703125,0.925537109375,-13.25,35.25,-0.875,34.09375
1271,-0.410888671875,-0.1396484375,0.94677734375,-13.6875,37.5625,-0.625,34.09375
1273,-0.410888671875,-0.1396484375,0.94677734375,-13.6875,37.5625,-0.625,34.09375
1275,-0.416015625,-0.139404296875,0.968505859375,-14.1875,39.4375,-0.25,34.09375
1277,-0.416015625,-0.139404296875,0.968505859375,-14.1875,39.4375,-0.25,34.09375
1279,-0.42041015625,-0.139892578125,0.99169921875,-14.8125,40.25,0.3125,34.09375
1281,-0.42041015625,-0.139892578125,0.99169921875,-14.8125,40.25,0.3125,34.09375
1283,-0.42626953125,-0.1435546875,1.01806640625,-15.625,40.3125,0.8125,34.09375
1285,-0.42626953125,-0.1435546875,1.01806640625,-15.625,40.3125,0.8125,34.09375
1287,-0.42626953125,-0.1435546875,1.01806640625,-15.625,40.3125,0.8125,34.09375
1289,-0.434326171875,-0.14794921875,1.042724609375,-15.9375,39.75,1.5625,34.09375
1291,-0.434326171875,-0.14794921875,1.042724609375,-15.9375,39.75,1.5625,34.09375
1293,-0.44189453125,-0.15283203125,1.06396484375,-16.0,38.4375,2.8125,34.09375
1295,-0.44189453125,-0.15283203125,1.06396484375,-16.0,38.4375,2.8125,34.09375
1297,-0.4443359375,-0.15771484375,1.083984375,-15.6875,36.6875,4.1875,34.09375
1299,-0.4443359375,-0.15771484375,1.083984375,-15.6875,36.6875,4.1875,34.09375
1301,-0.444091796875,-0.161865234375,1.1025390625,-15.125,34.5625,5.6875,34.09375
1303,-0.444091796875,-0.161865234375,1.1025390625,-15.125,34.5625,5.6875,34.09375
1305,-0.444091796875,-0.161865234375,1.1025390625,-15.125,34.5625,5.6875,34.09375
1307,-0.44189453125,-0.1640625,1.115478515625,-14.5625,32.125,7.0,34.09375
1309,-0.44189453125,-0.1640625,1.115478515625,-14.5625,32.125,7.0,34.09375
1311,-0.4404296875,-0.163818359375,1.124755859375,-14.0,29.25,8.25,34.09375
1313,-0.4404296875,-0.163818359375,1.124755859375,-14.0,29.25,8.25,34.09375
1315,-0.437255859375,-0.1640625,1.127685546875,-13.5,26.8125,9.6875,34.09375
1317,-0.437255859375,-0.1640625,1.127685546875,-13.5,26.8125,9.6875,34.09375
1319,-0.435791015625,-0.166259765625,1.1298828125,-13.0625,24.5,11.0625,34.09375
1321,-0.435791015625,-0.166259765625,1.1298828125,-13.0625,24.5,11.0625,34.09375
1323,-0.435302734375,-0.16748046875,1.131103515625,-12.875,21.9375,12.5625,34.09375
1325,-0.435302734375,-0.16748046875,1.131103515625,-12.875,21.9375,12.5625,34.09375
1327,-0.435302734375,-0.16748046875,1.131103515625,-12.875,21.9375,12.5625,34.09375
1329,-0.434326171875,-0.16748046875,1.131103515625,-13.0,19.75,14.0,34.09375
1331,-0.434326171875,-0.16748046875,1.131103515625,-13.0,19.75,14.0,34.09375
1333,-0.4326171875,-0.1669921875,1.131591796875,-13.875,17.75,15.125,34.09375
1335,-0.4326171875,-0.1669921875,1.131591796875,-13.875,17.75,15.125,34.09375
1337,-0.42919921875,-0.166259765625,1.1337890625,-14.8125,15.75,16.0625,34.09375
1339,-0.42919921875,-0.166259765625,1.1337890625,-14.8125,15.75,16.0625,34.09375
1341,-0.424072265625,-0.165283203125,1.134521484375,-15.625,13.875,16.8125,34.09375
1343,-0.424072265625,-0.165283203125,1.134521484375,-15.625,13.875,16.8125,34.09375
1345,-0.424072265625,-0.165283203125,1.135498046875,-16.25,12.8125,17.375,34.09375
1350,-0.414306640625,-0.174560546875,1.142822265625,-16.6875,11.8125,17.5,34.09375
1352,-0.414306640625,-0.174560546875,1.142822265625,-16.6875,11.8125,17.5,34.09375
1354,-0.414306640625,-0.174560546875,1.142822265625,-16.6875,11.8125,17.5,34.09375
1356,-0.407470703125,-0.1845703125,1.153564453125,-17.125,11.0625,17.6875,34.09375
1358,-0.407470703125,-0.1845703125,1.153564453125,-17.125,11.0625,17.6875,34.09375
1360,-0.40234375,-0.19482421875,1.16455078125,-17.5,10.625,17.75,34.09375
1362,-0.40234375,-0.19482421875,1.16455078125,-17.5,10.625,17.75,34.09375
1364,-0.397705078125,-0.206787109375,1.176025390625,-17.5,10.625,17.75,34.09375
1366,-0.397705078125,-0.206787109375,1.176025390625,-17.5,10.625,17.75,34.09375
1368,-0.397216796875,-0.223388671875,1.191162109375,-17.5625,10.5,17.8125,34.09375
1370,-0.397216796875,-0.223388671875,1.191162109375,-17.5625,10.5,17.8125,34.09375
1372,-0.398681640625,-0.241943359375,1.208984375,-17.6875,10.1875,17.375,34.09375
1374,-0.398681640625,-0.241943359375,1.208984375,-17.6875,10.1875,17.375,34.09375
1376,-0.398681640625,-0.241943359375,1.208984375,-17.6875,9.4375,16.5625,34.09375
1378,-0.404541015625,-0.2607421875,1.22998046875,-17.9375,9.4375,16.5625,34.09375
1380,-0.404541015625,-0.2607421875,1.22998046875,-17.9375,9.4375,16.5625,34.09375
1382,-0.412353515625,-0.278564453125,1.253173828125,-17.6875,8.25,15.4375,34.09375
1384,-0.412353515625,-0.278564453125,1.253173828125,-17.6875,8.25,15.4375,34.09375
1386,-0.41796875,-0.29150390625,1.274658203125,-17.0,6.625,13.9375,34.09375
1388,-0.41796875,-0.29150390625,1.274658203125,-17.0,6.625,13.9375,34.09375
1390,-0.42529296875,-0.296630859375,1.293212890625,-15.5,4.4375,12.375,34.09375
1392,-0.42529296875,-0.296630859375,1.293212890625,-15.5,4.4375,12.375,34.09375
1394,-0.4375,-0.296630859375,1.310791015625,-13.875,1.4375,10.75,34.09375
1396,-0.4375,-0.296630859375,1.310791015625,-13.875,1.4375,10.75,34.09375
1398,-0.4375,-0.2958984375,1.324462890625,-11.9375,-1.5625,9.0,34.09375
1400,-0.454345703125,-0.2958984375,1.324462890625,-11.9375,-1.5625,9.0,34.1015625
1402,-0.454345703125,-0.2958984375,1.324462890625,-11.9375,-1.5625,9.0,34.1015625
1404,-0.4716796875,-0.290283203125,1.335205078125,-9.875,-5.125,7.25,34.1015625
1406,-0.4716796875,-0.290283203125,1.335205078125,-9.875,-5.125,7.25,34.1015625
1408,-0.47900390625,-0.28369140625,1.349609375,-8.125,-9.0625,5.9375,34.1015625
1410,-0.47900390625,-0.28369140625,1.349609375,-8.125,-9.0625,5.9375,34.1015625
1412,-0.480224609375,-0.276611328125,1.365478515625,-6.375,-12.875,5.1875,34.1015625
1415,-0.480224609375,-0.276611328125,1.365478515625,-6.375,-12.875,5.1875,34.1015625
1417,-0.484375,-0.27490234375,1.3759765625,-5.0,-16.4375,4.75,34.1015625
1419,-0.484375,-0.27490234375,1.3759765625,-5.0,-16.4375,4.75,34.1015625
1420,-0.489013671875,-0.272705078125,1.387939453125,-4.1875,-20.1875,4.8125,34.1015625
1422,-0.489013671875,-0.272705078125,1.387939453125,-4.1875,-20.1875,4.8125,34.1015625
1424,-0.489013671875,-0.272705078125,1.387939453125,-4.1875,-20.1875,4.8125,34.1015625
1426,-0.494384765625,-0.274658203125,1.39990234375,-3.8125,-23.5,4.875,34.1015625
1428,-0.494384765625,-0.274658203125,1.39990234375,-3.8125,-23.5,4.875,34.1015625
1430,-0.5,-0.2861328125,1.413818359375,-3.9375,-26.375,5.1875,34.1015625
1432,-0.5,-0.2861328125,1.413818359375,-3.9375,-26.375,5.1875,34.1015625
1435,-0.50390625,-0.301025390625,1.4345703125,-4.1875,-29.0625,5.75,34.1015625
1436,-0.50390625,-0.301025390625,1.4345703125,-4.1875,-29.0625,5.75,34.1015625
1438,-0.51123046875,-0.322021484375,1.45947265625,-4.5625,-31.625,6.0,34.1015625
1440,-0.51123046875,-0.322021484375,1.45947265625,-4.5625,-31.625,6.0,34.1015625
1442,-0.51123046875,-0.322021484375,1.45947265625,-4.5625,-31.625,6.0,34.1015625
1444,-0.51611328125,-0.34619140625,1.4833984375,-4.6875,-34.0,5.875,34.1015625
1446,-0.51611328125,-0.34619140625,1.4833984375,-4.6875,-34.0,5.875,34.1015625
1448,-0.511962890625,-0.367919921875,1.504638671875,-4.125,-36.6875,4.9375,34.1015625
1450,-0.511962890625,-0.367919921875,1.504638671875,-4.125,-36.6875,4.9375,34.1015625
1452,-0.52197265625,-0.38525390625,1.521728515625,-2.375,-39.5,3.0,34.1015625
1454,-0.52197265625,-0.38525390625,1.521728515625,-2.375,-39.5,3.0,34.1015625
1456,-0.52197265625,-0.38525390625,1.521728515625,-0.9375,-43.25,1.375,34.1015625
1458,-0.5439453125,-0.393798828125,1.544921875,-0.9375,-43.25,1.375,34.1015625
1460,-0.5439453125,-0.393798828125,1.544921875,-0.9375,-43.25,1.375,34.1015625
1462,-0.564453125,-0.398193359375,1.555419921875,1.0,-45.8125,-0.0625,34.1015625
1464,-0.564453125,-0.398193359375,1.555419921875,1.0,-45.8125,-0.0625,34.1015625
1466,-0.581787109375,-0.3955078125,1.5625,4.5625,-48.125,-1.9375,34.1015625
1468,-0.581787109375,-0.3955078125,1.5625,4.5625,-48.125,-1.9375,34.1015625
1470,-0.5927734375,-0.391845703125,1.567626953125,8.5625,-51.0,-4.4375,34.1015625
1472,-0.5927734375,-0.391845703125,1.567626953125,8.5625,-51.0,-4.4375,34.1015625
1474,-0.60498046875,-0.39111328125,1.5771484375,12.625,-53.75,-7.9375,34.1015625
1476,-0.60498046875,-0.39111328125,1.5771484375,12.625,-53.75,-7.9375,34.1015625
1478,-0.60498046875,-0.39111328125,1.5771484375,12.625,-53.75,-11.875,34.1015625
1480,-0.630126953125,-0.392578125,1.587890625,17.5,-56.125,-11.875,34.1015625
1482,-0.630126953125,-0.392578125,1.587890625,17.5,-56.125,-11.875,34.1015625
1484,-0.659912109375,-0.39208984375,1.596435546875,23.25,-58.375,-15.5625,34.1015625
1486,-0.659912109375,-0.39208984375,1.596435546875,23.25,-58.375,-15.5625,34.1015625
1488,-0.685791015625,-0.386474609375,1.60205078125,29.75,-60.4375,-18.4375,34.1015625
1490,-0.685791015625,-0.386474609375,1.60205078125,29.75,-60.4375,-18.4375,34.1015625
1492,-0.713134765625,-0.3798828125,1.604248046875,36.4375,-62.3125,-20.6875,34.1015625
1494,-0.713134765625,-0.3798828125,1.604248046875,36.4375,-62.3125,-20.6875,34.1015625
1496,-0.736572265625,-0.3720703125,1.60888671875,42.875,-64.3125,-22.1875,34.1015625
1498,-0.736572265625,-0.3720703125,1.60888671875,42.875,-64.3125,-22.1875,34.1015625
1500,-0.736572265625,-0.3720703125,1.60888671875,42.875,-64.3125,-22.1875,34.1015625
1502,-0.75732421875,-0.36328125,1.61572265625,48.0,-66.25,-23.5,34.1015625
1504,-0.75732421875,-0.36328125,1.61572265625,48.0,-66.25,-23.5,34.1015625
1506,-0.77685546875,-0.354248046875,1.618408203125,51.875,-68.5,-24.625,34.1015625
1508,-0.77685546875,-0.354248046875,1.618408203125,51.875,-68.5,-24.625,34.1015625
1510,-0.800048828125,-0.352783203125,1.625244140625,54.5,-71.625,-25.4375,34.1015625
1512,-0.800048828125,-0.352783203125,1.625244140625,54.5,-71.625,-25.4375,34.1015625
1514,-0.82373046875,-0.35791015625,1.631591796875,55.6875,-75.9375,-26.0625,34.1015625
1516,-0.82373046875,-0.35791015625,1.631591796875,55.6875,-75.9375,-26.0625,34.1015625
1518,-0.82373046875,-0.35791015625,1.631591796875,56.125,-81.3125,-26.75,34.1015625
1520,-0.8427734375,-0.360107421875,1.635498046875,56.125,-81.3125,-26.75,34.1015625
1522,-0.8427734375,-0.360107421875,1.635498046875,56.125,-81.3125,-26.75,34.1015625
1524,-0.86083984375,-0.359130859375,1.637451171875,56.5625,-86.8125,-27.25,34.1015625
1526,-0.86083984375,-0.359130859375,1.637451171875,56.5625,-86.8125,-27.25,34.1015625
1528,-0.88720703125,-0.359375,1.641845703125,57.9375,-92.8125,-28.125,34.1015625
1530,-0.88720703125,-0.359375,1.641845703125,57.9375,-92.8125,-28.125,34.1015625
1532,-0.916015625,-0.3603515625,1.643310546875,60.0,-99.5,-28.9375,34.1015625
1534,-0.916015625,-0.3603515625,1.643310546875,60.0,-99.5,-28.9375,34.1015625
1536,-0.916015625,-0.3603515625,1.645751953125,63.0625,-106.875,-29.75,34.1015625
1538,-0.943359375,-0.357177734375,1.645751953125,63.0625,-106.875,-29.75,34.1015625
1539,-0.943359375,-0.357177734375,1.645751953125,63.0625,-106.875,-29.75,34.1015625
1541,-0.97314453125,-0.353759765625,1.646728515625,66.6875,-114.0,-30.125,34.1015625
1543,-0.97314453125,-0.353759765625,1.646728515625,66.6875,-114.0,-30.125,34.1015625
1546,-0.98779296875,-0.34765625,1.62451171875,70.9375,-121.4375,-29.75,34.1015625
1548,-0.98779296875,-0.34765625,1.62451171875,70.9375,-121.4375,-29.75,34.1015625
1550,-0.998046875,-0.33740234375,1.592529296875,75.5625,-129.625,-29.0,34.1015625
1552,-0.998046875,-0.33740234375,1.592529296875,75.5625,-129.625,-29.0,34.1015625
1554,-1.01708984375,-0.32958984375,1.57080078125,80.125,-136.4375,-28.375,34.1015625
1556,-1.01708984375,-0.32958984375,1.57080078125,80.125,-136.4375,-28.375,34.1015625
1558,-1.01708984375,-0.32958984375,1.57080078125,80.125,-136.4375,-27.5625,34.1015625
1559,-1.034912109375,-0.324951171875,1.557373046875,83.625,-142.25,-27.5625,34.1015625
1561,-1.034912109375,-0.324951171875,1.557373046875,83.625,-142.25,-27.5625,34.1015625
1563,-1.052490234375,-0.326416015625,1.54833984375,85.75,-146.5625,-26.5625,34.1015625
1565,-1.052490234375,-0.326416015625,1.54833984375,85.75,-146.5625,-26.5625,34.1015625
1568,-1.068603515625,-0.329833984375,1.5361328125,86.75,-150.3125,-25.25,34.1015625
1570,-1.068603515625,-0.329833984375,1.5361328125,86.75,-150.3125,-25.25,34.1015625
1572,-1.087158203125,-0.330322265625,1.5234375,87.625,-154.375,-23.9375,34.1015625
1573,-1.087158203125,-0.330322265625,1.5234375,87.625,-154.375,-23.9375,34.1015625
1575,-1.087158203125,-0.333984375,1.513916015625,87.9375,-159.125,-22.9375,34.1015625
1578,-1.1025390625,-0.333984375,1.513916015625,87.9375,-159.125,-22.9375,34.1015625
1579,-1.1025390625,-0.333984375,1.513916015625,87.9375,-159.125,-22.9375,34.1015625
1581,-1.11376953125,-0.343994140625,1.505126953125,87.75,-164.5,-21.875,34.1015625
1583,-1.11376953125,-0.343994140625,1.505126953125,87.75,-164.5,-21.875,34.1015625
1585,-1.122314453125,-0.35888671875,1.49853515625,87.25,-170.5625,-20.625,34.1015625
1589,-1.122314453125,-0.35888671875,1.49853515625,87.25,-177.1875,-19.0,34.1015625
1591,-1.12939453125,-0.375244140625,1.492431640625,86.5,-177.1875,-19.0,34.1015625
1593,-1.12939453125,-0.388427734375,1.478515625,86.125,-183.8125,-16.9375,34.1015625
1595,-1.135498046875,-0.388427734375,1.478515625,86.125,-183.8125,-16.9375,34.1015625
1597,-1.135498046875,-0.388427734375,1.478515625,86.125,-183.8125,-16.9375,34.1015625
1599,-1.141845703125,-0.397216796875,1.460693359375,86.25,-189.3125,-15.0625,34.1015625
1601,-1.141845703125,-0.397216796875,1.460693359375,86.25,-189.3125,-15.0625,34.1015625
1603,-1.151123046875,-0.403076171875,1.437744140625,87.625,-194.375,-13.5,34.1015625
1605,-1.151123046875,-0.403076171875,1.437744140625,87.625,-194.375,-13.5,34.1015625
1607,-1.159423828125,-0.40380859375,1.408935546875,89.125,-199.5625,-12.625,34.1015625
1609,-1.159423828125,-0.40380859375,1.408935546875,89.125,-199.5625,-12.625,34.1015625
1611,-1.159423828125,-0.40380859375,1.408935546875,89.125,-205.0625,-12.125,34.1015625
1613,-1.1611328125,-0.39794921875,1.37890625,90.5625,-205.0625,-12.125,34.1015625
1615,-1.1611328125,-0.39794921875,1.37890625,90.5625,-209.5,-11.5,34.1015625
1617,-1.1572265625,-0.384521484375,1.341064453125,92.75,-209.5,-11.5,34.1015625
1619,-1.1572265625,-0.384521484375,1.341064453125,92.75,-209.5,-11.5,34.1015625
1621,-1.14990234375,-0.366943359375,1.302001953125,96.5,-212.0,-10.9375,34.1015625
1623,-1.14990234375,-0.366943359375,1.302001953125,96.5,-212.0,-10.9375,34.1015625
1625,-1.147705078125,-0.349853515625,1.261474609375,100.25,-214.0625,-10.125,34.1015625
1627,-1.147705078125,-0.349853515625,1.261474609375,100.25,-214.0625,-10.125,34.1015625
1629,-1.144287109375,-0.330322265625,1.225830078125,103.625,-215.625,-8.25,34.1015625
1631,-1.144287109375,-0.330322265625,1.225830078125,103.625,-215.625,-8.25,34.1015625
1633,-1.144287109375,-0.330322265625,1.225830078125,103.625,-215.625,-8.25,34.1015625
1635,-1.136962890625,-0.307861328125,1.195556640625,106.0,-217.3125,-5.75,34.1015625
1637,-1.136962890625,-0.307861328125,1.195556640625,106.0,-217.3125,-5.75,34.1015625
1639,-1.12353515625,-0.292236328125,1.166748046875,107.125,-218.5,-3.0,34.1015625
1641,-1.12353515625,-0.292236328125,1.166748046875,107.125,-218.5,-3.0,34.1015625
1643,-1.10888671875,-0.271240234375,1.1376953125,106.1875,-218.75,0.5625,34.1015625
1645,-1.10888671875,-0.271240234375,1.1376953125,106.1875,-218.75,0.5625,34.1015625
1647,-1.09326171875,-0.2529296875,1.10791015625,103.6875,-218.3125,4.3125,34.1015625
1649,-1.09326171875,-0.2529296875,1.10791015625,103.6875,-218.3125,4.3125,34.1015625
1651,-1.09326171875,-0.2529296875,1.10791015625,103.6875,-218.3125,4.3125,34.1015625
1653,-1.081298828125,-0.237060546875,1.083251953125,99.6875,-217.875,7.75,34.1015625
1654,-1.081298828125,-0.237060546875,1.083251953125,99.6875,-217.875,7.75,34.1015625
1657,-1.0673828125,-0.230712890625,1.061279296875,93.75,-217.4375,11.3125,34.1015625
1659,-1.0673828125,-0.230712890625,1.061279296875,93.75,-217.4375,11.3125,34.1015625
1661,-1.05029296875,-0.235107421875,1.03955078125,85.375,-216.9375,14.9375,34.1015625
1663,-1.05029296875,-0.235107421875,1.03955078125,85.375,-216.9375,14.9375,34.1015625
1666,-1.031494140625,-0.23681640625,1.024658203125,75.6875,-216.5625,18.3125,34.1015625
1668,-1.031494140625,-0.23681640625,1.024658203125,66.0,-216.125,21.3125,34.1015625
1670,-1.01318359375,-0.241455078125,1.013916015625,66.0,-216.125,21.3125,34.1015625
1672,-1.01318359375,-0.241455078125,1.013916015625,66.0,-216.125,21.3125,34.1015625
1674,-0.99755859375,-0.246337890625,1.003662109375,56.9375,-215.375,23.75,34.1015625
1676,-0.99755859375,-0.246337890625,1.003662109375,56.9375,-215.375,23.75,34.1015625
1678,-0.977783203125,-0.252685546875,0.989990234375,48.875,-214.125,25.375,34.1015625
1680,-0.977783203125,-0.252685546875,0.989990234375,48.875,-214.125,25.375,34.1015625
1682,-0.955810546875,-0.25634765625,0.979248046875,42.0,-212.625,26.25,34.125
1684,-0.955810546875,-0.25634765625,0.979248046875,42.0,-212.625,26.25,34.125
1686,-0.955810546875,-0.25634765625,0.9638671875,36.9375,-211.0625,26.8125,34.125
1688,-0.9306640625,-0.2548828125,0.9638671875,36.9375,-211.0625,26.8125,34.125
1690,-0.9306640625,-0.2548828125,0.9638671875,36.9375,-211.0625,26.8125,34.125
1692,-0.90576171875,-0.251953125,0.947265625,33.125,-209.375,26.9375,34.125
1694,-0.90576171875,-0.251953125,0.947265625,33.125,-209.375,26.9375,34.125
1696,-0.882080078125,-0.241455078125,0.931640625,30.25,-207.4375,26.4375,34.125
1698,-0.882080078125,-0.241455078125,0.931640625,30.25,-207.4375,26.4375,34.125
1700,-0.854736328125,-0.238037109375,0.914306640625,27.3125,-205.5,25.3125,34.125
1703,-0.854736328125,-0.238037109375,0.914306640625,27.3125,-205.5,25.3125,34.125
1704,-0.830322265625,-0.234619140625,0.899658203125,24.75,-203.75,24.0625,34.125
1706,-0.830322265625,-0.234619140625,0.899658203125,24.75,-203.75,24.0625,34.125
1708,-0.767822265625,-0.225341796875,0.888916015625,22.5,-201.8125,22.9375,34.125
1710,-0.809326171875,-0.225341796875,0.888916015625,22.5,-201.8125,22.9375,34.125
1712,-0.809326171875,-0.225341796875,0.888916015625,22.5,-201.8125,22.9375,34.125
1714,-0.789306640625,-0.214599609375,0.883544921875,21.0625,-199.875,22.0,34.125
1716,-0.789306640625,-0.214599609375,0.883544921875,21.0625,-199.875,22.0,34.125
1718,-0.772705078125,-0.20556640625,0.884033203125,20.6875,-198.0,21.125,34.125
1720,-0.772705078125,-0.20556640625,0.884033203125,20.6875,-198.0,21.125,34.125
1722,-0.756103515625,-0.199462890625,0.8857421875,20.75,-196.5,20.5625,34.125
1724,-0.756103515625,-0.199462890625,0.8857421875,20.75,-196.5,20.5625,34.125
1726,-0.693603515625,-0.189453125,0.883056640625,22.0625,-195.1875,20.1875,34.125
1728,-0.73681640625,-0.189453125,0.883056640625,22.0625,-195.1875,20.1875,34.125
1730,-0.73681640625,-0.189453125,0.883056640625,22.0625,-195.1875,20.1875,34.125
1732,-0.71728515625,-0.177734375,0.872802734375,23.75,-194.0,20.1875,34.125
1735,-0.6953125,-0.16162109375,0.85693359375,25.625,-193.4375,20.5625,34.125
1738,-0.6953125,-0.16162109375,0.85693359375,25.625,-193.4375,20.5625,34.125
1740,-0.67333984375,-0.1455078125,0.837646484375,26.625,-192.6875,21.375,34.125
1742,-0.67333984375,-0.1455078125,0.837646484375,26.625,-192.6875,21.375,34.125
1743,-0.67333984375,-0.1455078125,0.837646484375,26.625,-192.6875,21.375,34.125
1746,-0.656982421875,-0.1357421875,0.81787109375,26.1875,-192.5625,22.8125,34.125
1747,-0.656982421875,-0.1357421875,0.81787109375,26.1875,-192.5625,22.8125,34.125
1750,-0.644287109375,-0.133056640625,0.794921875,24.375,-192.9375,24.75,34.125
1752,-0.644287109375,-0.133056640625,0.794921875,24.375,-192.9375,24.75,34.125
1754,-0.630615234375,-0.13037109375,0.767822265625,20.75,-193.1875,27.25,34.125
1756,-0.630615234375,-0.13037109375,0.767822265625,20.75,-193.1875,27.25,34.125
1758,-0.612060546875,-0.12890625,0.738525390625,16.5,-193.6875,30.0625,34.125
1760,-0.612060546875,-0.12890625,0.738525390625,16.5,-193.6875,30.0625,34.125
1762,-0.591552734375,-0.13427734375,0.710693359375,11.5625,-194.375,32.875,34.125
1764,-0.591552734375,-0.13427734375,0.710693359375,11.5625,-194.375,32.875,34.125
1765,-0.591552734375,-0.13427734375,0.710693359375,11.5625,-194.375,32.875,34.125
1768,-0.5693359375,-0.142578125,0.67919921875,6.375,-194.4375,35.125,34.125
1770,-0.5693359375,-0.142578125,0.67919921875,6.375,-194.4375,35.125,34.125
1771,-0.542724609375,-0.149658203125,0.646240234375,0.6875,-193.6875,36.3125,34.125
1774,-0.542724609375,-0.149658203125,0.646240234375,0.6875,-193.6875,36.3125,34.125
1776,-0.514404296875,-0.154541015625,0.617431640625,-4.75,-191.75,36.5,34.125
1778,-0.514404296875,-0.154541015625,0.617431640625,-4.75,-191.75,36.5,34.125
1780,-0.4833984375,-0.15625,0.57470703125,-10.125,-189.125,35.5,34.125
1782,-0.4833984375,-0.15625,0.57470703125,-10.125,-189.125,35.5,34.125
1784,-0.479248046875,-0.161865234375,0.582275390625,-15.6875,-188.0,34.0625,34.125
1786,-0.479248046875,-0.161865234375,0.582275390625,-15.6875,-188.0,34.0625,34.125
1788,-0.479248046875,-0.161865234375,0.582275390625,-15.6875,-188.0,34.0625,34.125
1790,-0.160400390625,-0.1865234375,0.62060546875,-29.6875,-190.375,32.5,34.125
1792,-0.160400390625,-0.1865234375,0.62060546875,-29.6875,-190.375,32.5,34.125
1794,-0.248046875,-0.196044921875,0.462646484375,-28.4375,-147.9375,34.1875,34.125
1795,-0.248046875,-0.196044921875,0.462646484375,-28.4375,-147.9375,34.1875,34.125
1798,-0.43505859375,-0.142333984375,0.4140625,-9.875,-107.5,24.625,34.125
1800,-0.43505859375,-0.142333984375,0.4140625,-9.875,-107.5,24.625,34.125
1802,-0.40869140625,-0.131591796875,0.326904296875,-5.375,-99.125,15.0625,34.125
1805,-0.40869140625,-0.131591796875,0.326904296875,-5.375,-99.125,15.0625,34.125
1807,-0.39208984375,-0.166259765625,0.2783203125,-4.0,-101.25,10.4375,34.125
1809,-0.39208984375,-0.166259765625,0.2783203125,-4.0,-101.25,10.4375,34.125
1811,-0.406005859375,-0.18798828125,0.241943359375,-4.0,-108.6875,6.8125,34.125
1813,-0.406005859375,-0.18798828125,0.241943359375,-4.0,-108.6875,6.8125,34.125
1815,-0.3583984375,-0.196533203125,0.265380859375,-10.125,-124.5625,3.0,34.125
1817,-0.3583984375,-0.196533203125,0.265380859375,-10.125,-124.5625,3.0,34.125
1819,-0.273681640625,-0.184814453125,0.36474609375,-14.1875,-132.875,1.0625,34.125
1821,-0.273681640625,-0.184814453125,0.36474609375,-14.1875,-132.875,1.0625,34.125
1824,-0.287109375,-0.138916015625,0.472412109375,-9.5625,-135.4375,1.375,34.125
1825,-0.287109375,-0.138916015625,0.472412109375,-9.5625,-135.4375,1.375,34.12890625
1827,-0.287109375,-0.138916015625,0.472412109375,-9.5625,-135.4375,1.375,34.12890625
1830,-0.287841796875,-0.078857421875,0.5283203125,-5.0625,-137.5625,-0.4375,34.12890625
1831,-0.287841796875,-0.078857421875,0.5283203125,-5.0625,-137.5625,-0.4375,34.12890625
1834,-0.27734375,-0.034912109375,0.55810546875,-0.5,-137.6875,-1.4375,34.12890625
1835,-0.27734375,-0.034912109375,0.55810546875,-0.5,-137.6875,-1.4375,34.12890625
1838,-0.24853515625,-0.0126953125,0.5615234375,2.9375,-137.5625,-0.6875,34.12890625
1840,-0.24853515625,-0.0126953125,0.5615234375,2.9375,-137.5625,-0.6875,34.12890625
1842,-0.22705078125,-0.00390625,0.546875,5.1875,-137.625,2.125,34.12890625
1844,-0.22705078125,-0.00390625,0.546875,5.1875,-137.625,2.125,34.12890625
1846,-0.224853515625,0.011474609375,0.53369140625,5.625,-137.125,6.5,34.12890625
1848,-0.224853515625,0.011474609375,0.53369140625,5.625,-137.125,6.5,34.12890625
1850,-0.224853515625,0.011474609375,0.53369140625,5.625,-137.125,6.5,34.12890625
1852,-0.21044921875,0.04248046875,0.531494140625,2.375,-136.3125,10.5625,34.12890625
1854,-0.21044921875,0.04248046875,0.531494140625,2.375,-136.3125,10.5625,34.12890625
1856,-0.18017578125,0.07177734375,0.523193359375,-2.875,-134.0625,12.875,34.12890625
1858,-0.18017578125,0.07177734375,0.523193359375,-2.875,-134.0625,12.875,34.12890625
1859,-0.14599609375,0.081787109375,0.50146484375,-7.0,-129.125,13.75,34.12890625
1862,-0.14599609375,0.081787109375,0.50146484375,-7.0,-129.125,13.75,34.12890625
1863,-0.11181640625,0.074462890625,0.4716796875,-9.125,-121.3125,13.75,34.12890625
1865,-0.11181640625,0.074462890625,0.4716796875,-9.125,-121.3125,13.75,34.12890625
1868,-0.11181640625,0.060546875,0.437744140625,-9.0,-112.9375,14.0625,34.12890625
1870,-0.0888671875,0.060546875,0.437744140625,-9.0,-112.9375,14.0625,34.12890625
1872,-0.0888671875,0.060546875,0.437744140625,-9.0,-112.9375,14.0625,34.12890625
1874,-0.073486328125,0.04638671875,0.402587890625,-8.0,-105.25,14.125,34.12890625
1876,-0.073486328125,0.04638671875,0.402587890625,-8.0,-105.25,14.125,34.12890625
1878,-0.064208984375,0.039306640625,0.3818359375,-7.1875,-98.8125,14.25,34.12890625
1880,-0.064208984375,0.039306640625,0.3818359375,-7.1875,-98.8125,14.25,34.12890625
1882,-0.062255859375,0.035400390625,0.371826171875,-7.125,-93.75,14.4375,34.12890625
1884,-0.062255859375,0.035400390625,0.371826171875,-7.125,-93.75,14.4375,34.12890625
1887,-0.059814453125,0.03515625,0.37158203125,-7.375,-89.625,15.125,34.12890625
1889,-0.059814453125,0.03515625,0.37158203125,-7.375,-89.625,15.125,34.12890625
1892,-0.047607421875,0.04052734375,0.37744140625,-8.125,-85.6875,16.0625,34.12890625
1894,-0.047607421875,0.04052734375,0.37744140625,-8.125,-85.6875,16.0625,34.12890625
1895,-0.025146484375,0.053466796875,0.3818359375,-9.3125,-81.75,16.625,34.12890625
1897,-0.025146484375,0.053466796875,0.3818359375,-9.3125,-81.75,16.625,34.12890625
1899,0.002197265625,0.0634765625,0.38427734375,-10.875,-78.0,17.125,34.12890625
1901,0.002197265625,0.0634765625,0.38427734375,-10.875,-78.0,17.125,34.12890625
1903,0.002197265625,0.0634765625,0.387451171875,-12.5,-75.0,17.25,34.12890625
1905,0.02978515625,0.0654296875,0.387451171875,-12.5,-75.0,17.25,34.12890625
1907,0.02978515625,0.0654296875,0.387451171875,-12.5,-75.0,17.25,34.12890625
1909,0.05126953125,0.059814453125,0.3896484375,-13.9375,-72.5,16.75,34.12890625
1911,0.05126953125,0.059814453125,0.3896484375,-13.9375,-72.5,16.75,34.12890625
1913,0.068603515625,0.049072265625,0.389404296875,-15.0,-70.4375,16.5,34.12890625
1915,0.068603515625,0.049072265625,0.389404296875,-15.0,-70.4375,16.5,34.12890625
1917,0.088134765625,0.0400390625,0.392578125,-16.1875,-68.4375,16.3125,34.12890625
1919,0.088134765625,0.0400390625,0.392578125,-16.1875,-68.4375,16.3125,34.12890625
1921,0.107421875,0.033935546875,0.400390625,-17.0,-66.6875,15.75,34.12890625
1923,0.107421875,0.033935546875,0.400390625,-17.0,-66.6875,15.75,34.12890625
1925,0.107421875,0.033935546875,0.400390625,-17.0,-66.6875,15.75,34.12890625
1927,0.124267578125,0.031494140625,0.411865234375,-17.8125,-64.5625,14.9375,34.12890625
1929,0.124267578125,0.031494140625,0.411865234375,-17.8125,-64.5625,14.9375,34.12890625
1931,0.139892578125,0.031005859375,0.427001953125,-18.9375,-62.4375,14.0625,34.12890625
1933,0.139892578125,0.031005859375,0.427001953125,-18.9375,-62.4375,14.0625,34.12890625
1935,0.155517578125,0.02734375,0.442626953125,-19.75,-60.125,13.4375,34.12890625
1937,0.155517578125,0.02734375,0.442626953125,-19.75,-60.125,13.4375,34.12890625
1939,0.166015625,0.0224609375,0.454345703125,-20.625,-57.5,12.625,34.12890625
1941,0.166015625,0.0224609375,0.454345703125,-20.625,-57.5,12.625,34.12890625
1943,0.166015625,0.0224609375,0.454345703125,-21.4375,-55.0,12.375,34.12890625
1945,0.173828125,0.01220703125,0.465576171875,-21.4375,-55.0,12.375,34.12890625
1947,0.173828125,0.01220703125,0.465576171875,-21.4375,-55.0,12.375,34.12890625
1949,0.18359375,0.000244140625,0.478271484375,-21.875,-53.0,12.75,34.12890625
1951,0.18359375,0.000244140625,0.478271484375,-21.875,-53.0,12.75,34.12890625
1953,0.191162109375,-0.00927734375,0.492431640625,-22.375,-51.25,13.4375,34.12890625
1955,0.191162109375,-0.00927734375,0.492431640625,-22.375,-51.25,13.4375,34.12890625
1957,0.202392578125,-0.01708984375,0.501708984375,-23.125,-49.3125,13.9375,34.12890625
1959,0.202392578125,-0.01708984375,0.501708984375,-23.125,-49.3125,13.9375,34.12890625
1961,0.21875,-0.026611328125,0.50927734375,-23.625,-47.3125,14.625,34.12890625
1963,0.21875,-0.026611328125,0.50927734375,-23.625,-47.3125,14.625,34.12890625
1965,0.21875,-0.026611328125,0.50927734375,-23.625,-47.3125,14.625,34.12890625
1967,0.23291015625,-0.037353515625,0.51611328125,-23.875,-45.125,15.125,34.109375
1969,0.23291015625,-0.037353515625,0.51611328125,-23.875,-45.125,15.125,34.109375
1971,0.2431640625,-0.042236328125,0.520263671875,-23.8125,-42.75,15.5,34.109375
1973,0.2431640625,-0.042236328125,0.520263671875,-23.8125,-42.75,15.5,34.109375
1975,0.251953125,-0.04443359375,0.52685546875,-23.3125,-40.3125,15.375,34.109375
1977,0.251953125,-0.04443359375,0.52685546875,-23.3125,-40.3125,15.375,34.109375
1979,0.25732421875,-0.048828125,0.537841796875,-22.625,-37.8125,14.6875,34.109375
1981,0.25732421875,-0.048828125,0.537841796875,-22.625,-37.8125,14.6875,34.109375
1983,0.26513671875,-0.05517578125,0.552734375,-22.0,-35.5,13.5625,34.109375
1985,0.26513671875,-0.05517578125,0.552734375,-22.0,-35.5,13.5625,34.109375
1987,0.26513671875,-0.05517578125,0.552734375,-22.0,-35.5,13.5625,34.109375
1989,0.273681640625,-0.059326171875,0.564453125,-21.1875,-33.75,12.25,34.109375
1991,0.273681640625,-0.059326171875,0.564453125,-21.1875,-33.75,12.25,34.109375
1993,0.28173828125,-0.06201171875,0.578369140625,-20.375,-32.125,10.75,34.109375
1995,0.28173828125,-0.06201171875,0.578369140625,-20.375,-32.125,10.75,34.109375
1997,0.2880859375,-0.0625,0.585693359375,-18.625,-30.1875,9.625,34.109375
1999,0.2880859375,-0.0625,0.585693359375,-18.625,-30.1875,9.625,34.109375
2001,0.2880859375,-0.0625,0.585693359375,-15.9375,-27.875,8.6875,34.109375
2003,0.2900390625,-0.0595703125,0.592041015625,-15.9375,-27.875,8.6875,34.109375
2005,0.2900390625,-0.0595703125,0.592041015625,-15.9375,-27.875,8.6875,34.109375
2007,0.291259765625,-0.0556640625,0.60009765625,-13.25,-25.75,7.5,34.109375
2009,0.291259765625,-0.0556640625,0.60009765625,-13.25,-25.75,7.5,34.109375
2011,0.290771484375,-0.0576171875,0.613037109375,-11.125,-23.75,6.5,34.109375
2013,0.290771484375,-0.0576171875,0.613037109375,-11.125,-23.75,6.5,34.109375
2015,0.2900390625,-0.061279296875,0.627685546875,-9.3125,-22.1875,5.8125,34.109375
2017,0.2900390625,-0.061279296875,0.627685546875,-9.3125,-22.1875,5.8125,34.109375
2019,0.292236328125,-0.061767578125,0.638671875,-8.0625,-21.0625,5.8125,34.109375
2020,0.292236328125,-0.061767578125,0.638671875,-8.0625,-21.0625,5.8125,34.109375
2022,0.292236328125,-0.061767578125,0.638671875,-8.0625,-21.0625,5.8125,34.109375
2025,0.290283203125,-0.060791015625,0.650146484375,-7.6875,-20.0625,6.0,34.109375
2027,0.290283203125,-0.060791015625,0.650146484375,-7.6875,-20.0625,6.0,34.109375
2029,0.28857421875,-0.0595703125,0.66015625,-8.0,-19.3125,6.25,34.109375
2031,0.28857421875,-0.0595703125,0.66015625,-8.0,-19.3125,6.25,34.109375
2033,0.289306640625,-0.061279296875,0.66943359375,-8.875,-18.625,6.375,34.109375
2034,0.289306640625,-0.061279296875,0.66943359375,-8.875,-18.625,6.375,34.109375
2036,0.29150390625,-0.0625,0.675048828125,-10.0,-17.875,6.4375,34.109375
2039,0.29150390625,-0.0625,0.675048828125,-10.0,-17.875,6.4375,34.109375
2042,0.290771484375,-0.06103515625,0.67236328125,-11.0625,-16.75,6.1875,34.109375
2044,0.290771484375,-0.06103515625,0.67236328125,-11.0625,-16.75,6.1875,34.109375
2045,0.285888671875,-0.06201171875,0.6640625,-12.0,-15.3125,5.875,34.109375
2047,0.285888671875,-0.06201171875,0.6640625,-12.0,-15.3125,5.875,34.109375
2050,0.280517578125,-0.065185546875,0.65625,-13.25,-14.1875,5.625,34.109375
2052,0.280517578125,-0.065185546875,0.65625,-13.25,-14.1875,5.625,34.109375
2054,0.280517578125,-0.065185546875,0.65625,-13.25,-14.1875,5.625,34.109375
2056,0.277099609375,-0.070068359375,0.6474609375,-14.875,-13.0625,5.4375,34.109375
2058,0.277099609375,-0.070068359375,0.6474609375,-14.875,-13.0625,5.4375,34.109375
2059,0.280029296875,-0.076904296875,0.63671875,-16.875,-12.0,5.125,34.109375
2062,0.280029296875,-0.076904296875,0.63671875,-16.875,-12.0,5.125,34.109375
2063,0.281982421875,-0.083740234375,0.627685546875,-18.5,-10.625,4.6875,34.109375
2065,0.281982421875,-0.083740234375,0.627685546875,-18.5,-10.625,4.6875,34.109375
2067,0.286376953125,-0.089111328125,0.618408203125,-19.25,-8.75,3.9375,34.109375
2069,0.286376953125,-0.089111328125,0.618408203125,-19.25,-8.75,3.9375,34.109375
2072,0.286376953125,-0.0947265625,0.609130859375,-19.125,-6.1875,2.6875,34.109375
2080,0.294189453125,-0.09912109375,0.6015625,-18.25,-3.0,1.125,34.109375
2082,0.29248046875,-0.1005859375,0.59765625,-17.6875,0.625,-0.6875,34.109375
2084,0.29248046875,-0.1005859375,0.59765625,-17.6875,0.625,-0.6875,34.109375
2088,0.285888671875,-0.100830078125,0.59619140625,-16.5625,4.4375,-2.3125,34.109375
2090,0.27685546875,-0.1005859375,0.594970703125,-15.125,7.875,-3.4375,34.109375
2092,0.27685546875,-0.1005859375,0.594970703125,-15.125,7.875,-3.4375,34.109375
2094,0.27685546875,-0.1005859375,0.594970703125,-15.125,7.875,-4.375,34.109375
2097,0.270263671875,-0.098388671875,0.591552734375,-13.5625,11.25,-4.375,34.109375
2100,0.262451171875,-0.097412109375,0.586669921875,-11.3125,14.75,-4.8125,34.109375
2102,0.262451171875,-0.097412109375,0.586669921875,-11.3125,14.75,-4.8125,34.109375
2104,0.25439453125,-0.094970703125,0.5810546875,-8.6875,18.125,-4.875,34.109375
2108,0.25439453125,-0.094970703125,0.5810546875,-8.6875,18.125,-4.875,34.109375
2110,0.24609375,-0.08935546875,0.57470703125,-5.9375,21.4375,-4.75,34.1171875
2112,0.23779296875,-0.087158203125,0.565673828125,-3.375,24.5,-4.5,34.1171875
2115,0.23779296875,-0.087158203125,0.565673828125,-3.375,24.5,-4.5,34.1171875
2117,0.22998046875,-0.085205078125,0.556884765625,-1.0625,27.6875,-4.125,34.1171875
2121,0.22998046875,-0.085205078125,0.556884765625,-1.0625,27.6875,-4.125,34.1171875
2123,0.223388671875,-0.083984375,0.55078125,0.625,30.5,-3.625,34.1171875
2125,0.223388671875,-0.085693359375,0.544677734375,1.8125,32.875,-3.1875,34.1171875
2127,0.222412109375,-0.085693359375,0.544677734375,1.8125,32.875,-3.1875,34.1171875
2130,0.222412109375,-0.085693359375,0.544677734375,1.8125,32.875,-3.1875,34.1171875
2132,0.2197265625,-0.088134765625,0.535888671875,2.5625,35.5,-2.8125,34.1171875
2136,0.21484375,-0.08935546875,0.528564453125,2.9375,38.5,-2.4375,34.1171875
2138,0.20654296875,-0.091552734375,0.5224609375,3.1875,41.6875,-2.1875,34.1171875
2140,0.20654296875,-0.091552734375,0.5224609375,3.1875,41.6875,-2.1875,34.1171875
2145,0.193359375,-0.0947265625,0.52001953125,3.125,44.5,-2.0,34.1171875
2147,0.1796875,-0.0986328125,0.5185546875,2.625,47.0,-2.25,34.1171875
2148,0.1796875,-0.0986328125,0.5185546875,2.625,47.0,-2.25,34.1171875
2150,0.1796875,-0.0986328125,0.5185546875,2.625,47.0,-2.25,34.1171875
2154,0.162353515625,-0.1005859375,0.519287109375,1.6875,49.5625,-2.5,34.1171875
2156,0.14453125,-0.10400390625,0.52587890625,0.625,51.6875,-2.6875,34.1171875
2158,0.14453125,-0.10400390625,0.52587890625,0.625,51.6875,-2.6875,34.1171875
2160,0.14453125,-0.106689453125,0.531982421875,-0.5625,53.75,-2.9375,34.1171875
2163,0.12548828125,-0.106689453125,0.531982421875,-0.5625,53.75,-2.9375,34.1171875
2165,0.104248046875,-0.107421875,0.53662109375,-1.625,55.9375,-3.1875,34.1171875
2167,0.104248046875,-0.107421875,0.53662109375,-1.625,55.9375,-3.1875,34.1171875
2169,0.081787109375,-0.109130859375,0.541748046875,-2.4375,58.1875,-3.4375,34.1171875
2171,0.081787109375,-0.109130859375,0.541748046875,-2.4375,58.1875,-3.4375,34.1171875
2173,0.081787109375,-0.109130859375,0.546875,-2.625,59.9375,-3.6875,34.1171875
2175,0.06005859375,-0.111572265625,0.546875,-2.625,59.9375,-3.6875,34.1171875
2177,0.06005859375,-0.111572265625,0.546875,-2.625,59.9375,-3.6875,34.1171875
2179,0.038818359375,-0.113525390625,0.54931640625,-2.625,61.5,-4.3125,34.1171875
2181,0.038818359375,-0.113525390625,0.54931640625,-2.625,61.5,-4.3125,34.1171875
2183,0.019287109375,-0.11376953125,0.54931640625,-2.25,62.75,-4.875,34.1171875
2185,0.019287109375,-0.11376953125,0.54931640625,-2.25,62.75,-4.875,34.1171875
2187,0.00439453125,-0.114501953125,0.548828125,-1.25,63.375,-5.8125,34.1171875
2190,0.00439453125,-0.114501953125,0.548828125,-1.25,63.375,-5.8125,34.1171875
2192,-0.0078125,-0.113525390625,0.544189453125,0.625,63.8125,-6.8125,34.1171875
2194,-0.0078125,-0.113525390625,0.544189453125,0.625,63.8125,-6.8125,34.1171875
2195,-0.0078125,-0.113525390625,0.544189453125,3.1875,64.75,-8.0625,34.1171875
2198,-0.017333984375,-0.107421875,0.538330078125,3.1875,64.75,-8.0625,34.1171875
2199,-0.017333984375,-0.107421875,0.538330078125,3.1875,64.75,-8.0625,34.1171875
2201,-0.026123046875,-0.09521484375,0.528076171875,6.75,65.875,-9.0625,34.1171875
2203,-0.026123046875,-0.09521484375,0.528076171875,6.75,65.875,-9.0625,34.1171875
2206,-0.031005859375,-0.08251953125,0.516845703125,10.625,67.1875,-10.125,34.1171875
2207,-0.031005859375,-0.08251953125,0.516845703125,10.625,67.1875,-10.125,34.1171875
2209,-0.0283203125,-0.067626953125,0.504150390625,14.3125,68.875,-10.5,34.1171875
2212,-0.0283203125,-0.067626953125,0.504150390625,14.3125,68.875,-10.5,34.1171875
2214,-0.01708984375,-0.052490234375,0.49462890625,17.0,70.9375,-10.6875,34.1171875
2216,-0.01708984375,-0.052490234375,0.49462890625,17.0,70.9375,-10.6875,34.1171875
2218,-0.01708984375,-0.052490234375,0.49462890625,17.0,70.9375,-11.125,34.1171875
2220,-0.011474609375,-0.046875,0.5654296875,24.6875,69.375,-11.125,34.1171875
2222,-0.011474609375,-0.046875,0.5654296875,24.6875,69.375,-11.125,34.1171875
2223,-0.00927734375,-0.10205078125,0.651611328125,54.5,58.75,-15.5625,34.1171875
2225,-0.00927734375,-0.10205078125,0.651611328125,54.5,58.75,-15.5625,34.1171875
2227,0.050048828125,-0.1396484375,0.58984375,65.4375,67.8125,-22.25,34.1171875
2229,0.050048828125,-0.1396484375,0.58984375,65.4375,67.8125,-22.25,34.1171875
2231,0.0654296875,-0.1455078125,0.581787109375,47.5625,80.3125,-23.9375,34.1171875
2233,0.0654296875,-0.1455078125,0.581787109375,47.5625,80.3125,-23.9375,34.1171875
2235,0.0654296875,-0.1455078125,0.581787109375,29.25,84.6875,-20.6875,34.1171875
2237,0.010498046875,-0.10791015625,0.51904296875,29.25,84.6875,-20.6875,34.1171875
2239,0.010498046875,-0.10791015625,0.51904296875,29.25,84.6875,-20.6875,34.1171875
2241,-0.022705078125,-0.0078125,0.5029296875,20.25,87.25,-16.25,34.1171875
2243,-0.022705078125,-0.0078125,0.5029296875,20.25,87.25,-16.25,34.1171875
2245,0.00390625,0.06298828125,0.630615234375,34.25,84.5625,-16.875,34.1171875
2247,0.00390625,0.06298828125,0.630615234375,34.25,84.5625,-16.875,34.1171875
2249,-0.009521484375,0.00146484375,0.759033203125,57.9375,86.3125,-21.5625,34.09765625
2251,-0.009521484375,0.00146484375,0.759033203125,57.9375,86.3125,-21.5625,34.09765625
2253,-0.009521484375,0.00146484375,0.759033203125,57.9375,86.3125,-21.5625,34.09765625
2255,-0.061279296875,-0.061767578125,0.795166015625,64.875,96.4375,-21.875,34.09765625
2257,-0.061279296875,-0.061767578125,0.795166015625,64.875,96.4375,-21.875,34.09765625
2259,-0.10693359375,-0.066162109375,0.711181640625,52.25,106.625,-16.1875,34.09765625
2261,-0.10693359375,-0.066162109375,0.711181640625,52.25,106.625,-16.1875,34.09765625
2263,-0.1298828125,-0.031005859375,0.61181640625,34.5,110.25,-9.75,34.09765625
2265,-0.1298828125,-0.031005859375,0.61181640625,34.5,110.25,-9.75,34.09765625
2267,-0.125244140625,0.005615234375,0.568115234375,26.3125,109.1875,-7.25,34.09765625
2269,-0.125244140625,0.005615234375,0.568115234375,26.3125,109.1875,-7.25,34.09765625
2271,-0.125244140625,0.005615234375,0.568115234375,25.75,106.6875,-8.75,34.09765625
2273,-0.112060546875,0.01708984375,0.593505859375,25.75,106.6875,-8.75,34.09765625
2275,-0.112060546875,0.01708984375,0.593505859375,25.75,106.6875,-8.75,34.09765625
2277,-0.11376953125,0.001708984375,0.68310546875,28.875,105.75,-11.8125,34.09765625
2279,-0.11376953125,0.001708984375,0.68310546875,28.875,105.75,-11.8125,34.09765625
2281,-0.122314453125,-0.023681640625,0.7412109375,28.5,107.125,-13.9375,34.09765625
2283,-0.122314453125,-0.023681640625,0.7412109375,28.5,107.125,-13.9375,34.09765625
2285,-0.1337890625,-0.03857421875,0.76318359375,24.1875,110.25,-14.5625,34.09765625
2287,-0.1337890625,-0.03857421875,0.76318359375,24.1875,110.25,-14.5625,34.09765625
2289,-0.142822265625,-0.0419921875,0.748291015625,20.5,113.6875,-13.8125,34.09765625
2291,-0.142822265625,-0.0419921875,0.748291015625,20.5,113.6875,-13.8125,34.09765625
2293,-0.142822265625,-0.0419921875,0.748291015625,20.5,113.6875,-13.8125,34.09765625
2295,-0.143798828125,-0.03955078125,0.718994140625,19.1875,116.75,-11.9375,34.09765625
2296,-0.143798828125,-0.03955078125,0.718994140625,19.1875,116.75,-11.9375,34.09765625
2299,-0.13671875,-0.031982421875,0.69775390625,20.875,118.5625,-10.375,34.09765625
2301,-0.13671875,-0.031982421875,0.69775390625,20.875,118.5625,-10.375,34.09765625
2303,-0.124267578125,-0.021240234375,0.6884765625,23.625,119.625,-9.8125,34.09765625
2305,-0.124267578125,-0.021240234375,0.6884765625,23.625,119.625,-9.8125,34.09765625
2307,-0.1123046875,-0.007080078125,0.693115234375,25.0625,121.3125,-9.9375,34.09765625
2309,-0.1123046875,-0.007080078125,0.693115234375,25.0625,121.3125,-9.9375,34.09765625
2311,-0.107177734375,0.00732421875,0.70751953125,24.875,123.75,-10.625,34.09765625
2313,-0.107177734375,0.00732421875,0.70751953125,24.875,123.75,-10.625,34.09765625
2315,-0.107177734375,0.00732421875,0.70751953125,24.875,127.1875,-11.5625,34.09765625
2317,-0.103515625,0.021728515625,0.722900390625,23.25,127.1875,-11.5625,34.09765625
2319,-0.103515625,0.021728515625,0.722900390625,23.25,127.1875,-11.5625,34.09765625
2321,-0.098876953125,0.04248046875,0.74365234375,20.5625,130.625,-12.75,34.09765625
2323,-0.098876953125,0.04248046875,0.74365234375,20.5625,130.625,-12.75,34.09765625
2325,-0.096435546875,0.05712890625,0.7578125,18.25,134.0625,-14.8125,34.09765625
2327,-0.096435546875,0.05712890625,0.7578125,18.25,134.0625,-14.8125,34.09765625
2329,-0.137939453125,0.071533203125,0.77392578125,16.6875,138.625,-15.0,34.09765625
2331,-0.137939453125,0.071533203125,0.77392578125,16.6875,138.625,-15.0,34.09765625
2333,-0.166259765625,0.09375,0.797607421875,13.8125,142.375,-16.875,34.09765625
2335,-0.166259765625,0.09375,0.797607421875,13.8125,142.375,-16.875,34.09765625
2337,-0.166259765625,0.09375,0.797607421875,13.8125,142.375,-16.875,34.09765625
2339,-0.18017578125,0.104248046875,0.82763671875,7.9375,144.9375,-17.5625,34.09765625
2341,-0.18017578125,0.104248046875,0.82763671875,7.9375,144.9375,-17.5625,34.09765625
2343,-0.20166015625,0.100341796875,0.857177734375,1.4375,147.1875,-16.625,34.09765625
2345,-0.20166015625,0.100341796875,0.857177734375,1.4375,147.1875,-16.625,34.09765625
2347,-0.23583984375,0.094970703125,0.882080078125,-5.375,150.4375,-13.8125,34.09765625
2349,-0.23583984375,0.094970703125,0.882080078125,-5.375,150.4375,-13.8125,34.09765625
2351,-0.26611328125,0.09521484375,0.90380859375,-12.125,153.875,-9.75,34.09765625
2353,-0.26611328125,0.09521484375,0.90380859375,-12.125,153.875,-9.75,34.09765625
2355,-0.287841796875,0.0986328125,0.921142578125,-19.4375,157.125,-4.875,34.09765625
2357,-0.287841796875,0.0986328125,0.921142578125,-19.4375,157.125,-4.875,34.09765625
2359,-0.287841796875,0.0986328125,0.921142578125,-19.4375,157.125,-4.875,34.09765625
2361,-0.3037109375,0.106201171875,0.930419921875,-27.0625,159.625,-0.4375,34.09765625
2363,-0.3037109375,0.106201171875,0.930419921875,-27.0625,159.625,-0.4375,34.09765625
2366,-0.3125,0.09814453125,0.95556640625,-34.0625,160.6875,3.0,34.09765625
2367,-0.3125,0.09814453125,0.95556640625,-34.0625,160.6875,3.0,34.09765625
2369,-0.31884765625,0.072265625,1.009765625,-36.4375,158.6875,5.3125,34.09765625
2371,-0.31884765625,0.072265625,1.009765625,-36.4375,158.6875,5.3125,34.09765625
2373,-0.33056640625,0.039794921875,1.06494140625,-32.5625,153.1875,6.6875,34.09765625
2375,-0.33056640625,0.039794921875,1.06494140625,-32.5625,153.1875,6.6875,34.09765625
2377,-0.33056640625,0.00244140625,1.10595703125,-24.625,148.6875,7.6875,34.09765625
2379,-0.348388671875,0.00244140625,1.10595703125,-24.625,148.6875,7.6875,34.09765625
2381,-0.348388671875,0.00244140625,1.10595703125,-24.625,148.6875,7.6875,34.09765625
2383,-0.365234375,-0.035400390625,1.13427734375,-15.8125,147.375,8.875,34.09765625
2385,-0.365234375,-0.035400390625,1.13427734375,-15.8125,147.375,8.875,34.09765625
2387,-0.372314453125,-0.0771484375,1.14453125,-9.5,146.8125,10.5625,34.09765625
2389,-0.372314453125,-0.0771484375,1.14453125,-9.5,146.8125,10.5625,34.09765625
2391,-0.366455078125,-0.110595703125,1.135986328125,-5.5625,145.4375,12.0,34.109375
2393,-0.366455078125,-0.110595703125,1.135986328125,-5.5625,145.4375,12.0,34.109375
2395,-0.35791015625,-0.132080078125,1.112548828125,-2.0625,143.8125,12.75,34.109375
2397,-0.35791015625,-0.132080078125,1.112548828125,-2.0625,143.8125,12.75,34.109375
2399,-0.35791015625,-0.132080078125,1.112548828125,-2.0625,143.8125,12.75,34.109375
2401,-0.34814453125,-0.14208984375,1.089599609375,1.9375,142.5,12.5625,34.109375
2403,-0.34814453125,-0.14208984375,1.089599609375,1.9375,142.5,12.5625,34.109375
2405,-0.341796875,-0.146484375,1.081298828125,7.4375,140.6875,11.5,34.109375
2407,-0.341796875,-0.146484375,1.081298828125,7.4375,140.6875,11.5,34.109375
2409,-0.340087890625,-0.145263671875,1.08349609375,14.3125,138.9375,8.875,34.109375
2411,-0.340087890625,-0.145263671875,1.08349609375,14.3125,138.9375,8.875,34.109375
2413,-0.34375,-0.14013671875,1.07177734375,19.625,139.25,5.75,34.109375
2415,-0.34375,-0.14013671875,1.07177734375,19.625,139.25,5.75,34.109375
2417,-0.352294921875,-0.129150390625,1.0224609375,16.25,144.5625,3.0625,34.109375
2419,-0.352294921875,-0.129150390625,1.0224609375,16.25,144.5625,3.0625,34.109375
2421,-0.352294921875,-0.129150390625,1.0224609375,0.25,151.9375,1.5,34.109375
2423,-0.361083984375,-0.109619140625,0.96142578125,4.125,151.9375,1.5,34.109375
2425,-0.361083984375,-0.109619140625,0.96142578125,4.125,151.9375,1.5,34.109375
2427,-0.372314453125,-0.08740234375,0.898681640625,-11.6875,157.375,0.25,34.109375
2429,-0.372314453125,-0.08740234375,0.898681640625,-11.6875,157.375,0.25,34.109375
2432,-0.395751953125,-0.060546875,0.873779296875,-26.625,161.375,-0.75,34.109375
2434,-0.395751953125,-0.060546875,0.873779296875,-26.625,161.375,-0.75,34.109375
2436,-0.423583984375,-0.057373046875,0.92578125,-35.0,160.8125,-1.8125,34.109375
2438,-0.423583984375,-0.057373046875,0.92578125,-35.0,160.8125,-1.8125,34.109375
2439,-0.4453125,-0.0361328125,0.992919921875,-38.3125,156.8125,-3.4375,34.109375
2442,-0.4453125,-0.0361328125,0.992919921875,-38.3125,156.8125,-3.4375,34.109375
2443,-0.4453125,-0.0361328125,0.992919921875,-38.3125,156.8125,-3.4375,34.109375
2445,-0.46533203125,-0.034912109375,1.063232421875,-39.5625,156.25,-5.8125,34.109375
2447,-0.46533203125,-0.034912109375,1.063232421875,-39.5625,156.25,-5.8125,34.109375
2449,-0.48681640625,-0.042724609375,1.126708984375,-41.0625,158.3125,-7.5,34.109375
2451,-0.48681640625,-0.042724609375,1.126708984375,-41.0625,158.3125,-7.5,34.109375
2454,-0.512939453125,-0.0576171875,1.166259765625,-43.375,159.8125,-7.625,34.109375
2456,-0.512939453125,-0.0576171875,1.166259765625,-43.375,159.8125,-7.625,34.109375
2457,-0.52978515625,-0.068359375,1.18798828125,-45.0625,160.25,-6.625,34.109375
2459,-0.52978515625,-0.068359375,1.18798828125,-45.0625,160.25,-6.625,34.109375
2461,-0.52978515625,-0.068359375,1.20361328125,-44.6875,159.6875,-4.75,34.109375
2463,-0.532958984375,-0.07568359375,1.20361328125,-44.6875,159.6875,-4.75,34.109375
2465,-0.532958984375,-0.07568359375,1.20361328125,-44.6875,159.6875,-4.75,34.109375
2467,-0.535888671875,-0.078369140625,1.21630859375,-41.875,159.375,-2.5625,34.109375
2469,-0.535888671875,-0.078369140625,1.21630859375,-41.875,159.375,-2.5625,34.109375
2471,-0.54052734375,-0.0849609375,1.2255859375,-38.125,158.875,-0.1875,34.109375
2473,-0.54052734375,-0.0849609375,1.2255859375,-38.125,158.875,-0.1875,34.109375
2475,-0.54345703125,-0.099365234375,1.2294921875,-33.75,158.125,2.0625,34.109375
2477,-0.54345703125,-0.099365234375,1.2294921875,-33.75,158.125,2.0625,34.109375
2479,-0.546630859375,-0.12451171875,1.23046875,-29.375,157.1875,3.9375,34.109375
2481,-0.546630859375,-0.12451171875,1.23046875,-29.375,157.1875,3.9375,34.109375
2483,-0.546630859375,-0.12451171875,1.23046875,-29.375,157.1875,3.9375,34.109375
2485,-0.544921875,-0.1552734375,1.22216796875,-26.3125,155.75,5.75,34.109375
2487,-0.544921875,-0.1552734375,1.22216796875,-26.3125,155.75,5.75,34.109375
2489,-0.539306640625,-0.17333984375,1.206298828125,-22.6875,154.0625,7.125,34.109375
2491,-0.539306640625,-0.17333984375,1.206298828125,-22.6875,154.0625,7.125,34.109375
2493,-0.542236328125,-0.193359375,1.1923828125,-20.0625,152.25,7.5625,34.109375
2495,-0.542236328125,-0.193359375,1.1923828125,-20.0625,152.25,7.5625,34.109375
2497,-0.55126953125,-0.19970703125,1.178466796875,-19.0,149.9375,7.125,34.109375
2499,-0.55126953125,-0.19970703125,1.178466796875,-19.0,149.9375,7.125,34.109375
2502,-0.55859375,-0.202880859375,1.1630859375,-18.875,147.3125,6.3125,34.109375
2503,-0.55859375,-0.202880859375,1.1630859375,-18.875,147.3125,6.3125,34.109375
2505,-0.55859375,-0.202880859375,1.1630859375,-18.875,147.3125,4.75,34.109375
2507,-0.564208984375,-0.203857421875,1.1455078125,-19.25,145.0625,4.75,34.109375
2509,-0.564208984375,-0.203857421875,1.1455078125,-19.25,145.0625,4.75,34.109375
2511,-0.56884765625,-0.205810546875,1.130859375,-20.375,143.5625,3.25,34.109375
2513,-0.56884765625,-0.205810546875,1.130859375,-20.375,143.5625,3.25,34.109375
2515,-0.56982421875,-0.20263671875,1.123291015625,-21.8125,143.125,1.5625,34.109375
2517,-0.56982421875,-0.20263671875,1.123291015625,-21.8125,143.125,1.5625,34.109375
2519,-0.56884765625,-0.194091796875,1.1240234375,-23.625,144.0,-0.3125,34.109375
2521,-0.56884765625,-0.194091796875,1.1240234375,-23.625,144.0,-0.3125,34.109375
2523,-0.56884765625,-0.180419921875,1.131591796875,-25.5625,146.125,-1.875,34.109375
2525,-0.56884765625,-0.180419921875,1.131591796875,-25.5625,146.125,-1.875,34.109375
2527,-0.56884765625,-0.180419921875,1.131591796875,-25.5625,146.125,-1.875,34.109375
2529,-0.572509765625,-0.167724609375,1.143798828125,-27.4375,148.8125,-3.125,34.109375
2531,-0.572509765625,-0.167724609375,1.143798828125,-27.4375,148.8125,-3.125,34.109375
2533,-0.580810546875,-0.154541015625,1.15771484375,-29.0625,151.8125,-4.1875,34.11328125
2535,-0.580810546875,-0.154541015625,1.15771484375,-29.0625,151.8125,-4.1875,34.11328125
2537,-0.594482421875,-0.14990234375,1.17529296875,-30.3125,154.5,-5.0,34.11328125
2539,-0.594482421875,-0.14990234375,1.17529296875,-30.3125,154.5,-5.0,34.11328125
2541,-0.60595703125,-0.14697265625,1.202880859375,-32.4375,156.1875,-5.625,34.11328125
2543,-0.60595703125,-0.14697265625,1.202880859375,-32.4375,156.1875,-5.625,34.11328125
2545,-0.60595703125,-0.14697265625,1.202880859375,-32.4375,156.1875,-6.0,34.11328125
2547,-0.61328125,-0.144287109375,1.233642578125,-34.6875,157.375,-6.0,34.11328125
2549,-0.61328125,-0.144287109375,1.233642578125,-34.6875,157.375,-6.0,34.11328125
2551,-0.627197265625,-0.146484375,1.26513671875,-36.6875,157.9375,-6.25,34.11328125
2553,-0.627197265625,-0.146484375,1.26513671875,-36.6875,157.9375,-6.25,34.11328125
2555,-0.644287109375,-0.152099609375,1.290771484375,-38.9375,157.125,-6.3125,34.11328125
2557,-0.644287109375,-0.152099609375,1.290771484375,-38.9375,157.125,-6.3125,34.11328125
2559,-0.644287109375,-0.152099609375,1.353271484375,-40.9375,154.5625,-6.0,34.11328125
2561,-0.65673828125,-0.164306640625,1.31298828125,-40.9375,154.5625,-6.0,34.11328125
2563,-0.65673828125,-0.182373046875,1.328857421875,-42.875,150.875,-4.5,34.11328125
2565,-0.660888671875,-0.182373046875,1.328857421875,-42.875,150.875,-4.5,34.11328125
2567,-0.660888671875,-0.182373046875,1.328857421875,-42.875,150.875,-4.5,34.11328125
2569,-0.658447265625,-0.204833984375,1.341064453125,-43.875,146.875,-2.1875,34.11328125
2571,-0.658447265625,-0.204833984375,1.341064453125,-43.875,146.875,-2.1875,34.11328125
2573,-0.6572265625,-0.228271484375,1.345947265625,-44.0,142.3125,1.3125,34.11328125
2575,-0.6572265625,-0.228271484375,1.345947265625,-44.0,142.3125,1.3125,34.11328125
2577,-0.654541015625,-0.258056640625,1.3447265625,-44.4375,137.125,5.0,34.11328125
2579,-0.654541015625,-0.258056640625,1.3447265625,-44.4375,137.125,5.0,34.11328125
2581,-0.654541015625,-0.258056640625,1.3447265625,-45.125,131.375,8.5,34.11328125
2583,-0.650390625,-0.28955078125,1.336669921875,-45.125,131.375,8.5,34.11328125
2585,-0.650390625,-0.28955078125,1.336669921875,-46.5,125.125,12.0,34.11328125
2587,-0.64697265625,-0.317626953125,1.32275390625,-46.5,125.125,12.0,34.11328125
2589,-0.64697265625,-0.317626953125,1.32275390625,-46.5,125.125,12.0,34.11328125
2591,-0.6435546875,-0.34814453125,1.299072265625,-48.3125,118.9375,14.75,34.11328125
2593,-0.6435546875,-0.34814453125,1.299072265625,-48.3125,118.9375,14.75,34.11328125
2595,-0.63427734375,-0.376220703125,1.275146484375,-50.3125,112.9375,16.6875,34.11328125
2597,-0.63427734375,-0.376220703125,1.275146484375,-50.3125,112.9375,16.6875,34.11328125
2599,-0.62109375,-0.400390625,1.253662109375,-52.625,107.375,17.8125,34.11328125
2601,-0.62109375,-0.400390625,1.253662109375,-52.625,107.375,17.8125,34.11328125
2603,-0.62109375,-0.400390625,1.253662109375,-52.625,107.375,17.8125,34.11328125
2605,-0.60595703125,-0.4208984375,1.2294921875,-54.9375,102.25,18.125,34.11328125
2607,-0.60595703125,-0.4208984375,1.2294921875,-54.9375,102.25,18.125,34.11328125
2609,-0.5869140625,-0.439453125,1.20458984375,-56.6875,98.125,17.5625,34.11328125
2611,-0.5869140625,-0.439453125,1.20458984375,-56.6875,98.125,17.5625,34.11328125
2613,-0.580810546875,-0.45751953125,1.181640625,-57.6875,95.375,16.0625,34.11328125
2615,-0.580810546875,-0.45751953125,1.181640625,-57.6875,95.375,16.0625,34.11328125
2617,-0.582763671875,-0.457275390625,1.171142578125,-56.1875,95.5,14.125,34.11328125
2619,-0.582763671875,-0.457275390625,1.171142578125,-56.1875,95.5,14.125,34.11328125
2621,-0.576904296875,-0.4580078125,1.163818359375,-52.3125,97.5625,11.1875,34.11328125
2623,-0.576904296875,-0.4580078125,1.163818359375,-52.3125,97.5625,11.1875,34.11328125
2625,-0.576904296875,-0.4580078125,1.163818359375,-52.3125,97.5625,11.1875,34.11328125
2627,-0.569580078125,-0.464111328125,1.163818359375,-47.4375,100.375,8.0625,34.11328125
2629,-0.569580078125,-0.464111328125,1.163818359375,-47.4375,100.375,8.0625,34.11328125
2631,-0.5654296875,-0.468017578125,1.1650390625,-42.4375,103.4375,4.75,34.11328125
2633,-0.5654296875,-0.468017578125,1.1650390625,-42.4375,103.4375,4.75,34.11328125
2635,-0.568603515625,-0.46484375,1.168212890625,-38.3125,105.875,1.4375,34.11328125
2637,-0.568603515625,-0.46484375,1.168212890625,-38.3125,105.875,1.4375,34.11328125
2639,-0.575927734375,-0.460205078125,1.173583984375,-35.25,107.1875,-1.9375,34.11328125
2641,-0.575927734375,-0.460205078125,1.173583984375,-35.25,107.1875,-1.9375,34.11328125
2643,-0.575927734375,-0.460205078125,1.173583984375,-35.25,107.1875,-1.9375,34.11328125
2645,-0.6015625,-0.44873046875,1.191162109375,-33.1875,108.9375,-5.5,34.11328125
2647,-0.6015625,-0.44873046875,1.191162109375,-33.1875,108.9375,-5.5,34.11328125
2648,-0.616455078125,-0.431640625,1.21533203125,-30.5,110.9375,-9.0,34.11328125
2651,-0.616455078125,-0.431640625,1.21533203125,-30.5,110.9375,-9.0,34.11328125
2653,-0.620849609375,-0.4208984375,1.239990234375,-27.875,112.0625,-12.0625,34.11328125
2655,-0.620849609375,-0.4208984375,1.239990234375,-27.875,112.0625,-12.0625,34.11328125
2657,-0.6201171875,-0.409423828125,1.266845703125,-25.6875,112.75,-14.5,34.11328125
2659,-0.6201171875,-0.409423828125,1.266845703125,-25.6875,112.75,-14.5,34.11328125
2661,-0.6201171875,-0.393798828125,1.29150390625,-24.0,112.875,-16.5625,34.11328125
2663,-0.6279296875,-0.393798828125,1.29150390625,-24.0,112.875,-16.5625,34.11328125
2665,-0.6279296875,-0.393798828125,1.29150390625,-24.0,112.875,-16.5625,34.11328125
2666,-0.645263671875,-0.37841796875,1.319580078125,-23.1875,112.0,-18.4375,34.11328125
2668,-0.645263671875,-0.37841796875,1.319580078125,-23.1875,112.0,-18.4375,34.11328125
2670,-0.664794921875,-0.362548828125,1.345947265625,-23.5625,109.75,-20.3125,34.11328125
2673,-0.664794921875,-0.362548828125,1.345947265625,-23.5625,109.75,-20.3125,34.11328125
2675,-0.681396484375,-0.348876953125,1.37158203125,-24.375,105.75,-22.0,34.10546875
2677,-0.681396484375,-0.348876953125,1.37158203125,-24.375,105.75,-22.0,34.10546875
2679,-0.689208984375,-0.3359375,1.38818359375,-25.25,100.1875,-22.75,34.10546875
2681,-0.689208984375,-0.3359375,1.38818359375,-25.25,100.1875,-22.75,34.10546875
2683,-0.689208984375,-0.3359375,1.38818359375,-25.25,100.1875,-22.75,34.10546875
2685,-0.6953125,-0.319580078125,1.395751953125,-25.6875,93.4375,-22.9375,34.10546875
2686,-0.6953125,-0.319580078125,1.395751953125,-25.6875,93.4375,-22.9375,34.10546875
2688,-0.698974609375,-0.30224609375,1.398681640625,-25.75,86.3125,-22.5625,34.10546875
2690,-0.698974609375,-0.30224609375,1.398681640625,-25.75,86.3125,-22.5625,34.10546875
2692,-0.699951171875,-0.28759765625,1.395751953125,-25.125,79.6875,-21.5625,34.10546875
2695,-0.699951171875,-0.28759765625,1.395751953125,-25.125,79.6875,-21.5625,34.10546875
2697,-0.69873046875,-0.268310546875,1.386474609375,-23.75,72.8125,-20.3125,34.10546875
2699,-0.69873046875,-0.268310546875,1.386474609375,-23.75,72.8125,-20.3125,34.10546875
2701,-0.693603515625,-0.253173828125,1.3701171875,-22.75,66.1875,-18.4375,34.10546875
2703,-0.693603515625,-0.253173828125,1.3701171875,-22.75,66.1875,-18.4375,34.10546875
2705,-0.685546875,-0.239501953125,1.346923828125,-22.1875,60.125,-16.5,34.10546875
2707,-0.685546875,-0.239501953125,1.346923828125,-22.1875,60.125,-16.5,34.10546875
2709,-0.685546875,-0.239501953125,1.346923828125,-22.1875,60.125,-16.5,34.10546875
2711,-0.677001953125,-0.2275390625,1.31787109375,-21.9375,54.1875,-14.6875,34.10546875
2713,-0.677001953125,-0.2275390625,1.31787109375,-21.9375,54.1875,-14.6875,34.10546875
2715,-0.666015625,-0.21484375,1.28466796875,-21.875,49.0,-12.4375,34.10546875
2717,-0.666015625,-0.21484375,1.28466796875,-21.875,49.0,-12.4375,34.10546875
2719,-0.654541015625,-0.203369140625,1.25341796875,-22.6875,44.25,-10.0,34.10546875
2721,-0.654541015625,-0.203369140625,1.25341796875,-22.6875,44.25,-10.0,34.10546875
2723,-0.64208984375,-0.19482421875,1.22314453125,-24.25,40.3125,-7.625,34.10546875
2725,-0.64208984375,-0.19482421875,1.22314453125,-24.25,40.3125,-7.625,34.10546875
2727,-0.64208984375,-0.19482421875,1.22314453125,-24.25,40.3125,-7.625,34.10546875
2729,-0.618896484375,-0.18798828125,1.19140625,-26.625,36.5,-5.25,34.10546875
2731,-0.618896484375,-0.18798828125,1.19140625,-26.625,36.5,-5.25,34.10546875
2733,-0.610107421875,-0.19580078125,1.155517578125,-31.6875,31.625,-3.0625,34.10546875
2734,-0.610107421875,-0.19580078125,1.155517578125,-31.6875,31.625,-3.0625,34.10546875
2736,-0.6328125,-0.17626953125,1.139404296875,-36.6875,29.9375,-1.1875,34.10546875
2739,-0.6328125,-0.17626953125,1.139404296875,-36.6875,29.9375,-1.1875,34.10546875
2741,-0.626220703125,-0.15966796875,1.111572265625,-39.5,28.875,0.5,34.10546875
2743,-0.626220703125,-0.15966796875,1.111572265625,-39.5,28.875,0.5,34.10546875
2745,-0.626220703125,-0.15966796875,1.111572265625,-39.5,27.8125,1.75,34.10546875
2747,-0.61669921875,-0.169921875,1.090576171875,-42.5625,27.8125,1.75,34.10546875
2749,-0.61669921875,-0.169921875,1.090576171875,-42.5625,27.8125,1.75,34.10546875
2750,-0.608642578125,-0.187255859375,1.0751953125,-46.0625,26.0,2.3125,34.10546875
2752,-0.608642578125,-0.187255859375,1.0751953125,-46.0625,26.0,2.3125,34.10546875
2754,-0.600830078125,-0.202392578125,1.056396484375,-50.0,24.0,2.8125,34.10546875
2756,-0.600830078125,-0.202392578125,1.056396484375,-50.0,24.0,2.8125,34.10546875
2758,-0.600830078125,-0.202392578125,1.040771484375,-53.4375,22.0625,3.625,34.10546875
2761,-0.600341796875,-0.21142578125,1.040771484375,-53.4375,22.0625,3.625,34.10546875
2762,-0.600341796875,-0.21142578125,1.040771484375,-55.625,19.9375,4.0,34.10546875
2764,-0.604248046875,-0.214111328125,1.03271484375,-55.625,19.9375,4.0,34.10546875
2766,-0.604248046875,-0.214111328125,1.03271484375,-55.625,19.9375,4.0,34.10546875
2768,-0.589599609375,-0.221435546875,1.0205078125,-57.0625,16.5625,4.125,34.10546875
2770,-0.589599609375,-0.221435546875,1.0205078125,-57.0625,16.5625,4.125,34.10546875
2772,-0.593017578125,-0.233154296875,1.00927734375,-58.4375,13.375,4.3125,34.10546875
2774,-0.593017578125,-0.233154296875,1.00927734375,-58.4375,13.375,4.3125,34.10546875
2776,-0.603271484375,-0.2197265625,1.004150390625,-57.5,12.0625,4.5625,34.10546875
2778,-0.603271484375,-0.2197265625,1.004150390625,-57.5,12.0625,4.5625,34.10546875
2780,-0.603271484375,-0.2197265625,1.004150390625,-57.5,12.0625,4.5625,34.10546875
2782,-0.6005859375,-0.211181640625,0.992919921875,-54.0625,11.3125,4.9375,34.10546875
2784,-0.6005859375,-0.211181640625,0.992919921875,-54.0625,11.3125,4.9375,34.10546875
2786,-0.593505859375,-0.212890625,0.986328125,-50.375,9.75,5.375,34.10546875
2788,-0.593505859375,-0.212890625,0.986328125,-50.375,9.75,5.375,34.10546875
2790,-0.57373046875,-0.222412109375,0.970458984375,-48.625,5.75,6.0625,34.10546875
2792,-0.57373046875,-0.222412109375,0.970458984375,-48.625,5.75,6.0625,34.10546875
2794,-0.595947265625,-0.2138671875,0.964111328125,-48.8125,3.25,7.25,34.10546875
2796,-0.595947265625,-0.2138671875,0.964111328125,-48.8125,3.25,7.25,34.10546875
2798,-0.595947265625,-0.2138671875,0.964111328125,-48.8125,3.25,7.25,34.10546875
2799,-0.602783203125,-0.17822265625,0.974609375,-46.3125,1.625,8.8125,34.10546875
2801,-0.602783203125,-0.17822265625,0.974609375,-46.3125,1.625,8.8125,34.10546875
2804,-0.599365234375,-0.162841796875,0.977294921875,-44.0625,-1.75,10.3125,34.10546875
2806,-0.599365234375,-0.162841796875,0.977294921875,-44.0625,-1.75,10.3125,34.10546875
2808,-0.5830078125,-0.163330078125,0.97998046875,-42.0625,-5.0,11.8125,34.10546875
2810,-0.5830078125,-0.163330078125,0.97998046875,-42.0625,-5.0,11.8125,34.10546875
2811,-0.5537109375,-0.17529296875,0.972412109375,-40.6875,-9.1875,13.5625,34.10546875
2814,-0.5537109375,-0.17529296875,0.972412109375,-40.6875,-9.1875,13.5625,34.10546875
2815,-0.5537109375,-0.17529296875,0.972412109375,-40.6875,-9.1875,13.5625,34.10546875
2817,-0.553955078125,-0.173828125,0.972412109375,-40.5625,-11.25,15.6875,34.1171875
2819,-0.553955078125,-0.173828125,0.972412109375,-40.5625,-11.25,15.6875,34.1171875
2821,-0.539306640625,-0.1572265625,0.9658203125,-39.0625,-11.75,17.6875,34.1171875
2823,-0.539306640625,-0.1572265625,0.9658203125,-39.0625,-11.75,17.6875,34.1171875
2826,-0.53271484375,-0.1513671875,0.935791015625,-40.75,-12.5625,19.4375,34.1171875
2828,-0.53271484375,-0.1513671875,0.935791015625,-40.75,-12.5625,19.4375,34.1171875
2830,-0.50634765625,-0.162353515625,0.939697265625,-41.8125,-12.6875,20.3125,34.1171875
2832,-0.50634765625,-0.162353515625,0.939697265625,-41.8125,-12.6875,20.3125,34.1171875
2834,-0.4794921875,-0.163330078125,0.9345703125,-42.5,-11.6875,20.375,34.1171875
2835,-0.4794921875,-0.163330078125,0.9345703125,-42.5,-11.6875,20.375,34.1171875
2837,-0.4794921875,-0.163330078125,0.9345703125,-42.5,-11.6875,20.375,34.1171875
2839,-0.4541015625,-0.177001953125,0.947509765625,-42.5625,-10.25,19.6875,34.1171875
2841,-0.4541015625,-0.177001953125,0.947509765625,-42.5625,-10.25,19.6875,34.1171875
2843,-0.434326171875,-0.1826171875,0.96533203125,-39.5,-7.0625,18.25,34.1171875
2845,-0.434326171875,-0.1826171875,0.96533203125,-39.5,-7.0625,18.25,34.1171875
2847,-0.4228515625,-0.19189453125,0.974853515625,-34.6875,-3.3125,16.125,34.1171875
2849,-0.4228515625,-0.19189453125,0.974853515625,-34.6875,-3.3125,16.125,34.1171875
2851,-0.427490234375,-0.197998046875,0.9619140625,-31.3125,-0.125,14.0625,34.1171875
2853,-0.427490234375,-0.197998046875,0.9619140625,-31.3125,-0.125,14.0625,34.1171875
2855,-0.427490234375,-0.197998046875,0.9619140625,-31.3125,-0.125,14.0625,34.1171875
2857,-0.415283203125,-0.2216796875,0.947998046875,-31.25,0.6875,12.25,34.1171875
2859,-0.415283203125,-0.2216796875,0.947998046875,-31.25,0.6875,12.25,34.1171875
2861,-0.445556640625,-0.226318359375,0.965087890625,-32.875,3.1875,9.875,34.1171875
2863,-0.445556640625,-0.226318359375,0.965087890625,-32.875,3.1875,9.875,34.1171875
2865,-0.457763671875,-0.207275390625,0.98388671875,-32.125,5.4375,7.0,34.1171875
2867,-0.457763671875,-0.207275390625,0.98388671875,-32.125,5.4375,7.0,34.1171875
2869,-0.462890625,-0.212646484375,0.996337890625,-30.125,7.4375,4.0,34.1171875
2871,-0.462890625,-0.212646484375,0.996337890625,-30.125,7.4375,4.0,34.1171875
2873,-0.462890625,-0.212646484375,0.996337890625,-30.125,7.4375,1.0,34.1171875
2875,-0.46435546875,-0.227294921875,1.007080078125,-28.0625,8.125,1.0,34.1171875
2877,-0.46435546875,-0.227294921875,1.007080078125,-28.0625,8.125,1.0,34.1171875
2879,-0.46337890625,-0.234130859375,1.008056640625,-25.5625,8.0,-1.0625,34.1171875
2881,-0.46337890625,-0.234130859375,1.008056640625,-25.5625,8.0,-1.0625,34.1171875
2883,-0.462646484375,-0.232421875,1.00927734375,-22.9375,8.0,-2.625,34.1171875
2885,-0.462646484375,-0.232421875,1.00927734375,-22.9375,8.0,-2.625,34.1171875
2887,-0.468505859375,-0.225341796875,1.0107421875,-20.5625,7.8125,-3.9375,34.1171875
2889,-0.468505859375,-0.225341796875,1.0107421875,-20.5625,7.8125,-3.9375,34.1171875
2892,-0.474609375,-0.219482421875,1.01220703125,-17.8125,7.3125,-5.1875,34.1171875
2894,-0.474609375,-0.219482421875,1.01220703125,-17.8125,7.3125,-5.1875,34.1171875
2895,-0.474609375,-0.219482421875,1.017333984375,-14.75,6.625,-6.6875,34.1171875
2897,-0.474853515625,-0.21826171875,1.017333984375,-14.75,6.625,-6.6875,34.1171875
2899,-0.474853515625,-0.21826171875,1.017333984375,-14.75,6.625,-6.6875,34.1171875
2901,-0.47119140625,-0.221923828125,1.021240234375,-11.25,6.0625,-7.75,34.1171875
2903,-0.47119140625,-0.221923828125,1.021240234375,-11.25,6.0625,-7.75,34.1171875
2905,-0.468017578125,-0.220458984375,1.02001953125,-7.1875,5.6875,-8.625,34.1171875
2908,-0.468017578125,-0.220458984375,1.02001953125,-7.1875,5.6875,-8.625,34.1171875
2910,-0.463134765625,-0.212646484375,1.01806640625,-2.8125,5.4375,-9.3125,34.1171875
2912,-0.463134765625,-0.212646484375,1.01806640625,-2.8125,5.4375,-9.3125,34.1171875
2914,-0.45263671875,-0.20263671875,1.013916015625,1.5,5.4375,-10.0,34.1171875
2916,-0.45263671875,-0.20263671875,1.013916015625,1.5,5.4375,-10.0,34.1171875
2918,-0.440673828125,-0.190185546875,1.00927734375,5.1875,6.1875,-10.625,34.1171875
2920,-0.440673828125,-0.190185546875,1.00927734375,5.1875,6.1875,-10.625,34.1171875
2922,-0.440673828125,-0.190185546875,1.00927734375,5.1875,6.1875,-10.625,34.1171875
2924,-0.4345703125,-0.1806640625,1.00341796875,7.875,7.0625,-11.25,34.1171875
2926,-0.4345703125,-0.1806640625,1.00341796875,7.875,7.0625,-11.25,34.1171875
2927,-0.43212890625,-0.171875,1.00048828125,9.25,8.1875,-11.9375,34.1171875
2929,-0.43212890625,-0.171875,1.00048828125,9.25,8.1875,-11.9375,34.1171875
2931,-0.412353515625,-0.162109375,0.9931640625,9.25,8.25,-12.25,34.1171875
2933,-0.412353515625,-0.162109375,0.9931640625,9.25,8.25,-12.25,34.1171875
2935,-0.412353515625,-0.162109375,0.9931640625,6.4375,7.6875,-12.75,34.1171875
2938,-0.4052734375,-0.1708984375,0.978515625,6.4375,7.6875,-12.75,34.1171875
2940,-0.4052734375,-0.1708984375,0.978515625,3.25,9.4375,-12.9375,34.1171875
2941,-0.43896484375,-0.146484375,0.992919921875,3.25,9.4375,-12.9375,34.1171875
2943,-0.43896484375,-0.146484375,0.992919921875,3.25,9.4375,-12.9375,34.1171875
2945,-0.442626953125,-0.114501953125,0.991943359375,2.6875,10.9375,-12.6875,34.1171875
2947,-0.442626953125,-0.114501953125,0.991943359375,2.6875,10.9375,-12.6875,34.1171875
2949,-0.444580078125,-0.114013671875,0.9970703125,1.875,12.4375,-12.625,34.1171875
2951,-0.444580078125,-0.114013671875,0.9970703125,1.875,12.4375,-12.625,34.1171875
2953,-0.43994140625,-0.12158203125,0.999267578125,0.3125,13.25,-12.4375,34.1171875
2955,-0.43994140625,-0.12158203125,0.999267578125,0.3125,13.25,-12.4375,34.1171875
2957,-0.43994140625,-0.12158203125,0.999267578125,0.3125,13.25,-12.4375,34.1171875
2959,-0.43408203125,-0.124755859375,1.00146484375,-1.875,13.9375,-11.8125,34.12890625
2961,-0.43408203125,-0.124755859375,1.00146484375,-1.875,13.9375,-11.8125,34.12890625
2963,-0.43701171875,-0.124267578125,1.00830078125,-4.375,14.3125,-10.625,34.12890625
2965,-0.43701171875,-0.124267578125,1.00830078125,-4.375,14.3125,-10.625,34.12890625
2967,-0.450927734375,-0.12158203125,1.01708984375,-6.75,14.3125,-9.5,34.12890625
2969,-0.450927734375,-0.12158203125,1.01708984375,-6.75,14.3125,-9.5,34.12890625
2971,-0.465576171875,-0.123046875,1.028564453125,-8.1875,13.75,-8.4375,34.12890625
2973,-0.465576171875,-0.123046875,1.028564453125,-8.1875,13.75,-8.4375,34.12890625
2975,-0.465576171875,-0.123046875,1.028564453125,-8.1875,13.75,-8.4375,34.12890625
2977,-0.4775390625,-0.12841796875,1.042236328125,-9.0,12.75,-7.125,34.12890625
2979,-0.4775390625,-0.12841796875,1.042236328125,-9.0,12.75,-7.125,34.12890625
2981,-0.486083984375,-0.14111328125,1.05078125,-9.25,11.4375,-5.8125,34.12890625
2983,-0.486083984375,-0.14111328125,1.05078125,-9.25,11.4375,-5.8125,34.12890625
2985,-0.49169921875,-0.14990234375,1.058349609375,-9.0,9.625,-4.6875,34.12890625
2987,-0.49169921875,-0.14990234375,1.058349609375,-9.0,9.625,-4.6875,34.12890625
2989,-0.497802734375,-0.15576171875,1.064697265625,-8.25,7.375,-3.25,34.12890625
2991,-0.497802734375,-0.15576171875,1.064697265625,-8.25,7.375,-3.25,34.12890625
2996,-0.503173828125,-0.158203125,1.072021484375,-7.0,5.125,-1.6875,34.12890625
2998,-0.505615234375,-0.16259765625,1.077880859375,-5.0,2.875,-0.3125,34.12890625
3000,-0.505615234375,-0.16259765625,1.077880859375,-5.0,2.875,-0.3125,34.12890625
3002,-0.504638671875,-0.16796875,1.081298828125,-2.8125,0.6875,1.25,34.12890625
3004,-0.504638671875,-0.16796875,1.081298828125,-2.8125,0.6875,1.25,34.12890625
3006,-0.499755859375,-0.17041015625,1.08349609375,-0.6875,-1.25,2.9375,34.12890625
3008,-0.499755859375,-0.17041015625,1.08349609375,-0.6875,-1.25,2.9375,34.12890625
3010,-0.499755859375,-0.17041015625,1.08349609375,-0.6875,-1.25,2.9375,34.12890625
3012,-0.493896484375,-0.171630859375,1.084716796875,1.75,-2.9375,4.8125,34.12890625
3014,-0.493896484375,-0.171630859375,1.084716796875,1.75,-2.9375,4.8125,34.12890625
3016,-0.48876953125,-0.17138671875,1.086181640625,3.875,-4.1875,6.25,34.12890625
3018,-0.48876953125,-0.17138671875,1.086181640625,3.875,-4.1875,6.25,34.12890625
3020,-0.4873046875,-0.169677734375,1.08740234375,5.375,-5.1875,7.75,34.12890625
3022,-0.4873046875,-0.169677734375,1.08740234375,5.375,-5.1875,7.75,34.12890625
3024,-0.4873046875,-0.169677734375,1.08740234375,5.9375,-6.1875,9.375,34.12890625
3026,-0.488525390625,-0.170166015625,1.087890625,5.9375,-6.1875,9.375,34.12890625
3028,-0.488525390625,-0.170166015625,1.087890625,5.9375,-6.8125,10.8125,34.12890625
3030,-0.489501953125,-0.174072265625,1.0859375,5.5625,-6.8125,10.8125,34.12890625
