time,acc_x,acc_y,acc_z,gyro_x,gyro_y,gyro_z,temp
0,0.0,0.0,0.0,0.0,0.0,0.0,0.0
2,0.0,0.0,0.0,0.0,0.0,0.0,0.0
4,0.0,0.0,0.0,0.0,0.0,0.0,0.0
6,0.0,0.0,0.0,0.0,0.0,0.0,0.0
8,0.0,0.0,0.0,0.0,0.0,0.0,0.0
10,0.0,0.0,0.0,0.0,0.0,0.0,0.0
11,0.0,0.0,0.0,0.0,0.0,0.0,0.0
13,0.0,0.0,0.0,0.0,0.0,0.0,0.0
15,0.0,0.0,0.0,0.0,0.0,0.0,0.0
17,0.0,0.0,0.0,0.0,0.0,0.0,0.0
18,0.0,0.0,0.0,0.0,0.0,0.0,0.0
20,0.0,0.0,0.0,0.0,0.0,0.0,0.0
22,0.0,0.0,0.0,0.0,0.0,0.0,0.0
24,0.0,0.0,0.0,0.0,0.0,0.0,0.0
25,0.0,0.0,0.0,0.0,0.0,0.0,0.0
27,0.0,0.0,0.0,0.0,0.0,0.0,0.0
29,0.0,0.0,0.0,0.0,0.0,0.0,0.0
31,0.0,0.0,0.0,0.0,0.0,0.0,0.0
33,0.0,0.0,0.0,0.0,0.0,0.0,0.0
35,0.0,0.0,0.0,0.0,0.0,0.0,0.0
37,0.0,0.0,0.0,0.0,0.0,0.0,0.0
38,0.0,0.0,0.0,0.0,0.0,0.0,0.0
40,0.0,0.0,0.0,0.0,0.0,0.0,0.0
42,0.0,0.0,0.0,0.0,0.0,0.0,0.0
44,0.0,0.0,0.0,0.0,0.0,0.0,0.0
45,0.0,0.0,0.0,0.0,0.0,0.0,0.0
47,0.0,0.0,0.0,0.0,0.0,0.0,0.0
49,0.0,0.0,0.0,0.0,0.0,0.0,0.0
51,0.0,0.0,0.0,0.0,0.0,0.0,0.0
52,0.0,0.0,0.0,0.0,0.0,0.0,0.0
54,0.0,0.0,0.0,0.0,0.0,0.0,0.0
56,0.0,0.0,0.0,0.0,0.0,0.0,0.0
58,0.0,0.0,0.0,0.0,0.0,0.0,0.0
59,0.0,0.0,0.0,0.0,0.0,0.0,0.0
61,0.0,0.0,0.0,0.0,0.0,0.0,0.0
63,0.0,0.0,0.0,0.0,0.0,0.0,0.0
65,0.0,0.0,0.0,0.0,0.0,0.0,0.0
67,0.0,0.0,0.0,0.0,0.0,0.0,0.0
69,0.0,0.0,0.0,0.0,0.0,0.0,0.0
71,0.0,0.0,0.0,0.0,0.0,0.0,0.0
72,0.0,0.0,0.0,0.0,0.0,0.0,0.0
74,0.0,0.0,0.0,0.0,0.0,0.0,0.0
76,0.0,0.0,0.0,0.0,0.0,0.0,0.0
78,0.0,0.0,0.0,0.0,0.0,0.0,0.0
79,0.0,0.0,0.0,0.0,0.0,0.0,0.0
81,0.0,0.0,0.0,0.0,0.0,0.0,0.0
83,0.0,0.0,0.0,0.0,0.0,0.0,0.0
85,0.0,0.0,0.0,0.0,0.0,0.0,0.0
86,0.0,0.0,0.0,0.0,0.0,0.0,0.0
88,0.0,0.0,0.0,0.0,0.0,0.0,0.0
90,0.0,0.0,0.0,0.0,0.0,0.0,0.0
92,0.0,0.0,0.0,0.0,0.0,0.0,0.0
94,0.0,0.0,0.0,0.0,0.0,0.0,0.0
95,-1.83447265625,2.584716796875,-3.473876953125,430.0,259.6875,440.6875,33.72265625
98,-1.83447265625,2.584716796875,-3.473876953125,430.0,259.6875,440.6875,33.72265625
100,-8.0,7.999755859375,7.999755859375,-2048.0,366.8125,-2048.0,33.72265625
102,-8.0,7.999755859375,7.999755859375,-2048.0,366.8125,-2048.0,33.72265625
103,-8.0,7.999755859375,7.999755859375,-2048.0,366.8125,-2048.0,33.72265625
106,7.999755859375,-8.0,-4.214111328125,-1774.9375,-2048.0,-2048.0,33.72265625
108,7.999755859375,-8.0,-4.214111328125,-1774.9375,-2048.0,-2048.0,33.72265625
109,0.089111328125,-0.0703125,1.026611328125,11.875,-3.8125,-1.5625,33.72265625
111,0.089111328125,-0.0703125,1.026611328125,11.875,-3.8125,-1.5625,33.72265625
113,0.08935546875,-0.066162109375,1.024658203125,11.4375,-3.6875,-1.5,33.72265625
115,0.08935546875,-0.066162109375,1.024658203125,11.4375,-3.6875,-1.5,33.72265625
117,0.08935546875,-0.0625,1.022216796875,10.25,-3.6875,-1.25,33.72265625
119,0.08935546875,-0.0625,1.022216796875,10.25,-3.6875,-1.25,33.72265625
121,0.08935546875,-0.0625,1.022216796875,8.0625,-3.75,-0.875,33.72265625
123,0.09033203125,-0.05859375,1.017822265625,8.0625,-3.75,-0.875,33.77734375
125,0.09033203125,-0.05859375,1.017822265625,8.0625,-3.75,-0.875,33.77734375
127,0.089599609375,-0.05517578125,1.01513671875,6.5625,-3.875,-0.4375,33.77734375
129,0.089599609375,-0.05517578125,1.01513671875,6.5625,-3.875,-0.4375,33.77734375
131,0.09033203125,-0.054443359375,1.013427734375,5.375,-3.625,0.125,33.77734375
133,0.09033203125,-0.054443359375,1.013427734375,5.375,-3.625,0.125,33.77734375
135,0.09033203125,-0.054443359375,1.013427734375,5.375,-3.625,0.6875,33.77734375
136,0.090576171875,-0.055419921875,1.013916015625,4.5625,-3.5,0.6875,33.77734375
138,0.090576171875,-0.055419921875,1.013916015625,4.5625,-3.5,0.6875,33.77734375
140,0.090576171875,-0.056884765625,1.01513671875,3.25,-3.4375,1.0,33.77734375
142,0.090576171875,-0.056884765625,1.01513671875,3.25,-3.4375,1.0,33.77734375
145,0.09130859375,-0.05615234375,1.017333984375,2.1875,-3.0625,1.4375,33.77734375
147,0.09130859375,-0.05615234375,1.017333984375,2.1875,-3.0625,1.4375,33.77734375
149,0.091552734375,-0.055419921875,1.02099609375,1.3125,-2.625,1.75,33.77734375
151,0.091552734375,-0.055419921875,1.02099609375,1.3125,-2.625,1.75,33.77734375
153,0.093017578125,-0.05517578125,1.025634765625,0.625,-2.125,1.9375,33.77734375
155,0.093017578125,-0.05517578125,1.025634765625,0.625,-2.125,1.9375,33.77734375
156,0.093017578125,-0.05517578125,1.025634765625,0.625,-2.125,1.9375,33.77734375
158,0.091796875,-0.056884765625,1.029541015625,0.3125,-1.8125,2.1875,33.77734375
160,0.091796875,-0.056884765625,1.029541015625,0.3125,-1.8125,2.1875,33.77734375
162,0.0908203125,-0.0576171875,1.031005859375,-0.0625,-1.5,2.625,33.77734375
164,0.0908203125,-0.0576171875,1.031005859375,-0.0625,-1.5,2.625,33.77734375
167,0.087646484375,-0.05810546875,1.030029296875,-0.5,-1.4375,2.9375,33.77734375
168,0.087646484375,-0.05810546875,1.030029296875,-0.5,-1.4375,2.9375,33.77734375
170,0.08642578125,-0.0576171875,1.030029296875,-1.0,-1.6875,3.375,33.77734375
172,0.08642578125,-0.0576171875,1.030029296875,-1.0,-1.6875,3.375,33.77734375
174,0.08642578125,-0.0576171875,1.030029296875,-1.0,-1.6875,3.375,33.77734375
176,0.08447265625,-0.056884765625,1.029296875,-1.5,-1.6875,3.8125,33.77734375
178,0.08447265625,-0.056884765625,1.029296875,-1.5,-1.6875,3.8125,33.77734375
180,0.08203125,-0.05908203125,1.02783203125,-1.9375,-1.8125,3.9375,33.77734375
182,0.08203125,-0.05908203125,1.02783203125,-1.9375,-1.8125,3.9375,33.77734375
184,0.08154296875,-0.061767578125,1.02734375,-2.375,-1.875,3.9375,33.77734375
186,0.08154296875,-0.061767578125,1.02734375,-2.375,-1.875,3.9375,33.77734375
187,0.08154296875,-0.061767578125,1.02734375,-2.375,-1.875,3.9375,33.77734375
190,0.084228515625,-0.06494140625,1.02734375,-2.5,-2.0625,3.9375,33.77734375
192,0.084228515625,-0.06494140625,1.02734375,-2.5,-2.0625,3.9375,33.77734375
194,0.088134765625,-0.066650390625,1.027587890625,-2.1875,-1.875,3.6875,33.77734375
195,0.088134765625,-0.066650390625,1.027587890625,-2.1875,-1.875,3.6875,33.77734375
197,0.0908203125,-0.0693359375,1.029541015625,-1.875,-1.8125,3.375,33.77734375
199,0.0908203125,-0.0693359375,1.029541015625,-1.875,-1.8125,3.375,33.77734375
201,0.0908203125,-0.071044921875,1.0322265625,-1.625,-1.6875,3.25,33.77734375
203,0.0908203125,-0.071044921875,1.0322265625,-1.625,-1.6875,3.25,33.77734375
205,0.0908203125,-0.071044921875,1.0322265625,-1.625,-1.6875,3.25,33.77734375
207,0.089599609375,-0.069580078125,1.03125,-1.25,-1.4375,2.6875,33.77734375
209,0.089599609375,-0.069580078125,1.03125,-1.25,-1.4375,2.6875,33.77734375
211,0.087646484375,-0.0673828125,1.0283203125,-0.6875,-1.4375,2.125,33.77734375
213,0.087646484375,-0.0673828125,1.0283203125,-0.6875,-1.4375,2.125,33.77734375
215,0.0849609375,-0.0673828125,1.024658203125,-0.1875,-1.125,1.8125,33.77734375
217,0.0849609375,-0.0673828125,1.024658203125,-0.1875,-1.125,1.8125,33.77734375
219,0.08056640625,-0.067138671875,1.023193359375,-0.0625,-1.125,1.5,33.77734375
221,0.08056640625,-0.067138671875,1.023193359375,-0.0625,-1.125,1.5,33.77734375
223,0.08056640625,-0.067138671875,1.023193359375,-0.0625,-1.125,1.5,33.77734375
225,0.077392578125,-0.0703125,1.023681640625,0.1875,-0.9375,1.25,33.77734375
227,0.077392578125,-0.0703125,1.023681640625,0.1875,-0.9375,1.25,33.77734375
228,0.0751953125,-0.071044921875,1.02587890625,0.1875,-0.625,0.625,33.77734375
230,0.0751953125,-0.071044921875,1.02587890625,0.1875,-0.625,0.625,33.77734375
232,0.0732421875,-0.0712890625,1.02490234375,0.4375,-0.5,0.1875,33.77734375
234,0.0732421875,-0.0712890625,1.02490234375,0.4375,-0.5,0.1875,33.77734375
237,0.0732421875,-0.0712890625,1.025634765625,0.625,-0.4375,-0.125,33.77734375
239,0.072265625,-0.070068359375,1.025634765625,0.625,-0.4375,-0.125,33.77734375
240,0.072265625,-0.070068359375,1.025634765625,0.625,-0.4375,-0.125,33.77734375
242,0.06982421875,-0.0693359375,1.027587890625,0.6875,-0.5,-0.9375,33.77734375
244,0.06982421875,-0.0693359375,1.027587890625,0.6875,-0.5,-0.9375,33.77734375
246,0.069091796875,-0.070068359375,1.027587890625,0.6875,-0.6875,-1.625,33.77734375
248,0.069091796875,-0.070068359375,1.027587890625,0.6875,-0.6875,-1.625,33.77734375
250,0.067626953125,-0.070068359375,1.027587890625,0.625,-0.9375,-2.125,33.77734375
252,0.067626953125,-0.070068359375,1.027587890625,0.625,-0.9375,-2.125,33.77734375
254,0.067626953125,-0.070068359375,1.027587890625,0.625,-0.9375,-2.125,33.77734375
256,0.0673828125,-0.069091796875,1.027587890625,0.875,-1.0625,-2.625,33.77734375
259,0.066650390625,-0.068115234375,1.024658203125,1.375,-1.3125,-3.1875,33.77734375
261,0.066650390625,-0.068115234375,1.024658203125,1.375,-1.3125,-3.1875,33.77734375
263,0.066650390625,-0.068115234375,1.024658203125,1.375,-1.3125,-3.1875,33.77734375
265,0.068115234375,-0.06591796875,1.021728515625,1.75,-1.25,-3.125,33.79296875
267,0.068115234375,-0.06591796875,1.021728515625,1.75,-1.25,-3.125,33.79296875
269,0.068359375,-0.0634765625,1.022705078125,2.1875,-1.1875,-3.25,33.79296875
271,0.068359375,-0.0634765625,1.022705078125,2.1875,-1.1875,-3.25,33.79296875
272,0.068115234375,-0.0625,1.0234375,2.375,-1.0,-3.3125,33.79296875
274,0.068115234375,-0.0625,1.0234375,2.375,-1.0,-3.3125,33.79296875
276,0.068115234375,-0.0625,1.0234375,2.375,-1.0,-3.4375,33.79296875
278,0.06689453125,-0.063232421875,1.0244140625,2.125,-0.875,-3.4375,33.79296875
280,0.06689453125,-0.063232421875,1.0244140625,2.125,-0.875,-3.4375,33.79296875
283,0.06396484375,-0.0634765625,1.0263671875,1.875,-0.5625,-3.75,33.79296875
285,0.06396484375,-0.0634765625,1.0263671875,1.875,-0.5625,-3.75,33.79296875
287,0.061767578125,-0.065185546875,1.02783203125,1.4375,-0.5,-4.0,33.79296875
289,0.061767578125,-0.065185546875,1.02783203125,1.4375,-0.5,-4.0,33.79296875
291,0.05712890625,-0.068359375,1.028564453125,1.25,-0.3125,-4.25,33.79296875
292,0.05712890625,-0.068359375,1.028564453125,1.25,-0.3125,-4.25,33.79296875
294,0.0517578125,-0.068115234375,1.025390625,1.3125,-0.1875,-4.625,33.79296875
296,0.0517578125,-0.068115234375,1.025390625,1.3125,-0.1875,-4.625,33.79296875
298,0.0517578125,-0.068115234375,1.025390625,1.3125,-0.1875,-4.625,33.79296875
300,0.046142578125,-0.067626953125,1.02294921875,1.4375,-0.25,-4.875,33.79296875
302,0.046142578125,-0.067626953125,1.02294921875,1.4375,-0.25,-4.875,33.79296875
304,0.042724609375,-0.069091796875,1.01953125,1.75,-0.5625,-5.4375,33.79296875
306,0.042724609375,-0.069091796875,1.01953125,1.75,-0.5625,-5.4375,33.79296875
308,0.039794921875,-0.06884765625,1.016845703125,1.625,-0.9375,-5.75,33.79296875
310,0.039794921875,-0.06884765625,1.016845703125,1.625,-0.9375,-5.75,33.79296875
312,0.037109375,-0.069091796875,1.013916015625,1.5625,-1.0,-5.875,33.79296875
314,0.037109375,-0.069091796875,1.013916015625,1.5625,-1.0,-5.875,33.79296875
316,0.037109375,-0.069091796875,1.013916015625,1.5625,-1.0,-5.875,33.79296875
318,0.037109375,-0.070556640625,1.01318359375,1.25,-1.3125,-6.125,33.79296875
320,0.037109375,-0.070556640625,1.01318359375,1.25,-1.3125,-6.125,33.79296875
322,0.03759765625,-0.072021484375,1.01416015625,0.9375,-1.625,-6.6875,33.79296875
324,0.03759765625,-0.072021484375,1.01416015625,0.9375,-1.625,-6.6875,33.79296875
326,0.03759765625,-0.07275390625,1.013427734375,1.0,-2.0,-7.125,33.79296875
328,0.03759765625,-0.07275390625,1.013427734375,1.0,-2.0,-7.125,33.79296875
331,0.035888671875,-0.073974609375,1.012451171875,1.125,-2.375,-7.6875,33.79296875
332,0.035888671875,-0.073974609375,1.012451171875,1.125,-2.375,-7.6875,33.79296875
334,0.033447265625,-0.07470703125,1.009033203125,1.6875,-2.5625,-8.375,33.79296875
336,0.033447265625,-0.07470703125,1.009033203125,1.6875,-2.5625,-8.375,33.79296875
338,0.033447265625,-0.07470703125,1.009033203125,1.6875,-2.5625,-8.375,33.79296875
340,0.02978515625,-0.072509765625,1.005615234375,2.375,-3.0,-8.875,33.79296875
342,0.02978515625,-0.072509765625,1.005615234375,2.375,-3.0,-8.875,33.79296875
344,0.02783203125,-0.067626953125,0.999755859375,2.75,-3.1875,-9.125,33.79296875
346,0.02783203125,-0.067626953125,0.999755859375,2.75,-3.1875,-9.125,33.79296875
348,0.031005859375,-0.0634765625,0.99072265625,2.9375,-3.5,-9.25,33.79296875
350,0.031005859375,-0.0634765625,0.99072265625,2.9375,-3.5,-9.25,33.79296875
352,0.03515625,-0.060302734375,0.9814453125,3.125,-3.8125,-8.9375,33.79296875
354,0.03515625,-0.060302734375,0.9814453125,3.125,-3.8125,-8.9375,33.79296875
356,0.03515625,-0.060302734375,0.9814453125,3.125,-3.8125,-8.9375,33.79296875
358,0.037841796875,-0.055419921875,0.973876953125,3.375,-4.0,-8.4375,33.79296875
360,0.037841796875,-0.055419921875,0.973876953125,3.375,-4.0,-8.4375,33.79296875
362,0.04052734375,-0.050048828125,0.96826171875,3.5625,-4.0625,-7.75,33.79296875
364,0.04052734375,-0.050048828125,0.96826171875,3.5625,-4.0625,-7.75,33.79296875
366,0.03759765625,-0.045166015625,0.96337890625,3.375,-3.875,-6.9375,33.79296875
367,0.03759765625,-0.045166015625,0.96337890625,3.375,-3.875,-6.9375,33.79296875
369,0.03759765625,-0.045166015625,0.96337890625,3.375,-3.625,-6.25,33.79296875
371,0.033935546875,-0.041748046875,0.959228515625,2.6875,-3.625,-6.25,33.79296875
374,0.033935546875,-0.041748046875,0.959228515625,2.6875,-3.625,-6.25,33.79296875
375,0.03369140625,-0.04248046875,0.955078125,1.75,-3.5,-5.3125,33.79296875
377,0.03369140625,-0.04248046875,0.955078125,1.75,-3.5,-5.3125,33.79296875
379,0.035400390625,-0.045166015625,0.9482421875,0.625,-3.25,-4.6875,33.79296875
381,0.035400390625,-0.045166015625,0.9482421875,0.625,-3.25,-4.6875,33.79296875
383,0.0361328125,-0.048828125,0.939697265625,-0.3125,-2.875,-3.8125,33.79296875
385,0.0361328125,-0.048828125,0.939697265625,-0.3125,-2.875,-3.8125,33.79296875
387,0.0361328125,-0.048828125,0.939697265625,-0.3125,-2.875,-3.3125,33.79296875
389,0.034423828125,-0.053466796875,0.933837890625,-1.25,-2.75,-3.3125,33.79296875
391,0.034423828125,-0.053466796875,0.933837890625,-1.25,-2.75,-3.3125,33.79296875
393,0.02880859375,-0.05615234375,0.92919921875,-2.375,-2.625,-2.9375,33.79296875
395,0.02880859375,-0.05615234375,0.92919921875,-2.375,-2.625,-2.9375,33.79296875
397,0.0244140625,-0.056884765625,0.92578125,-3.1875,-2.6875,-2.875,33.79296875
399,0.0244140625,-0.056884765625,0.92578125,-3.1875,-2.6875,-2.875,33.79296875
401,0.02294921875,-0.058349609375,0.923583984375,-4.0,-2.6875,-2.75,33.79296875
403,0.02294921875,-0.058349609375,0.923583984375,-4.0,-2.6875,-2.75,33.79296875
405,0.02294921875,-0.058349609375,0.923583984375,-4.0,-2.6875,-2.75,33.79296875
407,0.022705078125,-0.060546875,0.920654296875,-4.625,-2.625,-2.8125,33.83203125
409,0.022705078125,-0.060546875,0.920654296875,-4.625,-2.625,-2.8125,33.83203125
410,0.023193359375,-0.059814453125,0.913818359375,-5.0,-2.75,-3.0,33.83203125
412,0.023193359375,-0.059814453125,0.913818359375,-5.0,-2.75,-3.0,33.83203125
414,0.022705078125,-0.05712890625,0.9052734375,-5.25,-2.9375,-3.25,33.83203125
416,0.022705078125,-0.05712890625,0.9052734375,-5.25,-2.9375,-3.25,33.83203125
418,0.024169921875,-0.05712890625,0.897705078125,-4.9375,-3.125,-3.1875,33.83203125
420,0.024169921875,-0.05712890625,0.897705078125,-4.9375,-3.125,-3.1875,33.83203125
423,0.024169921875,-0.05712890625,0.897705078125,-4.4375,-3.3125,-3.0,33.83203125
424,0.02978515625,-0.05859375,0.8916015625,-4.4375,-3.3125,-3.0,33.83203125
426,0.02978515625,-0.05859375,0.8916015625,-4.4375,-3.3125,-3.0,33.83203125
428,0.032470703125,-0.057861328125,0.8857421875,-4.125,-3.5625,-2.8125,33.83203125
430,0.032470703125,-0.057861328125,0.8857421875,-4.125,-3.5625,-2.8125,33.83203125
432,0.034912109375,-0.057373046875,0.881103515625,-4.1875,-3.75,-2.5,33.83203125
434,0.034912109375,-0.057373046875,0.881103515625,-4.1875,-3.75,-2.5,33.83203125
436,0.034912109375,-0.057373046875,0.876220703125,-4.3125,-4.125,-1.9375,33.83203125
438,0.040283203125,-0.055419921875,0.876220703125,-4.3125,-4.125,-1.9375,33.83203125
440,0.040283203125,-0.055419921875,0.876220703125,-4.3125,-4.125,-1.9375,33.83203125
442,0.046630859375,-0.0546875,0.8720703125,-4.5625,-4.125,-1.125,33.83203125
444,0.046630859375,-0.0546875,0.8720703125,-4.5625,-4.125,-1.125,33.83203125
446,0.048828125,-0.05517578125,0.865966796875,-4.9375,-4.3125,-0.375,33.83203125
448,0.048828125,-0.05517578125,0.865966796875,-4.9375,-4.3125,-0.375,33.83203125
450,0.04638671875,-0.055908203125,0.857421875,-5.5,-4.6875,0.9375,33.83203125
452,0.04638671875,-0.055908203125,0.857421875,-5.5,-4.6875,0.9375,33.83203125
454,0.04638671875,-0.055908203125,0.85009765625,-6.4375,-5.1875,2.3125,33.83203125
456,0.04248046875,-0.05615234375,0.85009765625,-6.4375,-5.1875,2.3125,33.83203125
458,0.040283203125,-0.056884765625,0.843994140625,-7.375,-6.0625,3.8125,33.83203125
460,0.040283203125,-0.056884765625,0.843994140625,-7.375,-6.0625,3.8125,33.83203125
462,0.040283203125,-0.056884765625,0.843994140625,-7.375,-6.0625,3.8125,33.83203125
464,0.038818359375,-0.0556640625,0.83837890625,-8.125,-7.125,5.3125,33.83203125
466,0.038818359375,-0.0556640625,0.83837890625,-8.125,-7.125,5.3125,33.83203125
468,0.041748046875,-0.05517578125,0.83447265625,-8.9375,-8.5625,6.875,33.83203125
470,0.041748046875,-0.05517578125,0.83447265625,-8.9375,-8.5625,6.875,33.83203125
472,0.046630859375,-0.05419921875,0.834228515625,-9.8125,-10.5,8.625,33.83203125
474,0.046630859375,-0.05419921875,0.834228515625,-9.8125,-10.5,8.625,33.83203125
476,0.0498046875,-0.05078125,0.83154296875,-10.5,-12.75,10.1875,33.83203125
478,0.0498046875,-0.05078125,0.83154296875,-10.5,-12.75,10.1875,33.83203125
480,0.0498046875,-0.05078125,0.83154296875,-10.5,-12.75,10.1875,33.83203125
482,0.052734375,-0.049072265625,0.826904296875,-10.75,-15.25,11.875,33.83203125
484,0.052734375,-0.049072265625,0.826904296875,-10.75,-15.25,11.875,33.83203125
486,0.056884765625,-0.049072265625,0.818603515625,-10.875,-18.25,13.625,33.83203125
488,0.056884765625,-0.049072265625,0.818603515625,-10.875,-18.25,13.625,33.83203125
490,0.06689453125,-0.050537109375,0.8115234375,-10.75,-21.625,15.4375,33.83203125
492,0.06689453125,-0.050537109375,0.8115234375,-10.75,-21.625,15.4375,33.83203125
494,0.084716796875,-0.053466796875,0.802978515625,-9.9375,-24.625,17.3125,33.83203125
495,0.084716796875,-0.053466796875,0.802978515625,-9.9375,-24.625,17.3125,33.83203125
497,0.084716796875,-0.053466796875,0.802978515625,-9.9375,-24.625,17.3125,33.83203125
499,0.1064453125,-0.0537109375,0.7939453125,-8.8125,-27.625,19.3125,33.83203125
501,0.1064453125,-0.0537109375,0.7939453125,-8.8125,-27.625,19.3125,33.83203125
503,0.129150390625,-0.052490234375,0.791015625,-7.625,-30.375,21.4375,33.83203125
505,0.129150390625,-0.052490234375,0.791015625,-7.625,-30.375,21.4375,33.83203125
507,0.147705078125,-0.055419921875,0.79150390625,-6.125,-32.3125,23.875,33.83203125
510,0.147705078125,-0.055419921875,0.79150390625,-6.125,-32.3125,23.875,33.83203125
511,0.171875,-0.05419921875,0.794189453125,-5.25,-33.1875,26.0625,33.83203125
513,0.171875,-0.05419921875,0.794189453125,-5.25,-33.1875,26.0625,33.83203125
515,0.171875,-0.05419921875,0.794189453125,-5.25,-33.1875,26.0625,33.83203125
517,0.203857421875,-0.05517578125,0.796875,-4.9375,-33.6875,28.0,33.83203125
519,0.203857421875,-0.05517578125,0.796875,-4.9375,-33.6875,28.0,33.83203125
521,0.235107421875,-0.05615234375,0.80859375,-4.9375,-34.125,29.6875,33.83203125
523,0.235107421875,-0.05615234375,0.80859375,-4.9375,-34.125,29.6875,33.83203125
525,0.25439453125,-0.0595703125,0.8173828125,-4.4375,-33.9375,30.9375,33.83203125
527,0.25439453125,-0.0595703125,0.8173828125,-4.4375,-33.9375,30.9375,33.83203125
529,0.25439453125,-0.0595703125,0.8173828125,-4.4375,-33.9375,30.9375,33.83203125
531,0.270751953125,-0.06201171875,0.82080078125,-3.875,-33.1875,32.1875,33.83203125
533,0.270751953125,-0.06201171875,0.82080078125,-3.875,-33.1875,32.1875,33.83203125
535,0.29345703125,-0.064208984375,0.828369140625,-3.5625,-31.6875,33.625,33.83203125
537,0.29345703125,-0.064208984375,0.828369140625,-3.5625,-31.6875,33.625,33.83203125
539,0.328369140625,-0.06298828125,0.84375,-4.5625,-29.6875,34.75,33.83203125
540,0.328369140625,-0.06298828125,0.84375,-4.5625,-29.6875,34.75,33.83203125
542,0.36865234375,-0.061279296875,0.875244140625,-6.4375,-27.5,35.6875,33.83203125
545,0.36865234375,-0.061279296875,0.875244140625,-6.4375,-27.5,35.6875,33.83203125
547,0.36865234375,-0.061279296875,0.919189453125,-9.1875,-24.8125,36.1875,33.83203125
549,0.408203125,-0.063232421875,0.919189453125,-9.1875,-24.8125,36.1875,33.8046875
551,0.408203125,-0.063232421875,0.919189453125,-9.1875,-24.8125,36.1875,33.8046875
554,0.45068359375,-0.072021484375,0.966064453125,-11.75,-21.6875,35.75,33.8046875
556,0.498291015625,-0.08203125,1.015625,-12.5625,-18.4375,34.25,33.8046875
558,0.498291015625,-0.08203125,1.015625,-12.5625,-18.4375,34.25,33.8046875
559,0.498291015625,-0.08203125,1.015625,-12.5625,-18.4375,34.25,33.8046875
561,0.545166015625,-0.0859375,1.06396484375,-11.5,-15.3125,31.375,33.8046875
563,0.545166015625,-0.0859375,1.06396484375,-11.5,-15.3125,31.375,33.8046875
565,0.592529296875,-0.08251953125,1.112060546875,-9.25,-12.3125,28.25,33.8046875
567,0.592529296875,-0.08251953125,1.112060546875,-9.25,-12.3125,28.25,33.8046875
569,0.637939453125,-0.072265625,1.16259765625,-6.625,-9.6875,24.5,33.8046875
571,0.637939453125,-0.072265625,1.16259765625,-6.625,-9.6875,24.5,33.8046875
573,0.637939453125,-0.072265625,1.16259765625,-6.625,-9.6875,24.5,33.8046875
575,0.681640625,-0.058837890625,1.2119140625,-4.3125,-7.875,20.4375,33.8046875
577,0.681640625,-0.058837890625,1.2119140625,-4.3125,-7.875,20.4375,33.8046875
579,0.723876953125,-0.046630859375,1.255615234375,-2.1875,-6.0625,16.4375,33.8046875
581,0.723876953125,-0.046630859375,1.255615234375,-2.1875,-6.0625,16.4375,33.8046875
583,0.767333984375,-0.039794921875,1.294921875,0.5625,-4.8125,13.0625,33.8046875
585,0.767333984375,-0.039794921875,1.294921875,0.5625,-4.8125,13.0625,33.8046875
587,0.8095703125,-0.035400390625,1.328369140625,4.0625,-4.625,10.5,33.8046875
588,0.8095703125,-0.035400390625,1.328369140625,4.0625,-4.625,10.5,33.8046875
590,0.8095703125,-0.035400390625,1.328369140625,4.0625,-4.625,10.5,33.8046875
592,0.846923828125,-0.031982421875,1.35986328125,7.875,-4.8125,8.8125,33.8046875
594,0.846923828125,-0.031982421875,1.35986328125,7.875,-4.8125,8.8125,33.8046875
596,0.877685546875,-0.02587890625,1.38916015625,11.3125,-5.5,7.8125,33.8046875
599,0.877685546875,-0.02587890625,1.38916015625,11.3125,-5.5,7.8125,33.8046875
600,0.908203125,-0.015625,1.4140625,13.5,-6.0625,8.125,33.8046875
602,0.908203125,-0.015625,1.4140625,13.5,-6.0625,8.125,33.8046875
604,0.908203125,-0.015625,1.4765625,14.1875,-7.3125,8.8125,33.8046875
606,0.93212890625,-0.00732421875,1.442138671875,14.1875,-7.3125,8.8125,33.8046875
608,0.93212890625,-0.00732421875,1.442138671875,14.1875,-7.3125,8.8125,33.8046875
610,0.953857421875,-0.00439453125,1.472900390625,13.625,-8.5,10.0625,33.8046875
612,0.953857421875,-0.00439453125,1.472900390625,13.625,-8.5,10.0625,33.8046875
614,0.971923828125,-0.005615234375,1.500732421875,12.375,-10.125,11.375,33.8046875
616,0.971923828125,-0.005615234375,1.500732421875,12.375,-10.125,11.375,33.8046875
618,0.984619140625,-0.008056640625,1.521240234375,10.6875,-12.0,12.8125,33.8046875
620,0.984619140625,-0.008056640625,1.521240234375,10.6875,-12.0,12.8125,33.8046875
622,0.99658203125,-0.00732421875,1.5322265625,8.8125,-14.25,14.3125,33.8046875
624,0.99658203125,-0.00732421875,1.5322265625,8.8125,-14.25,14.3125,33.8046875
626,0.99658203125,-0.00732421875,1.5322265625,8.8125,-14.25,14.3125,33.8046875
628,1.00341796875,-0.00732421875,1.53369140625,6.5625,-16.9375,15.8125,33.8046875
630,1.00341796875,-0.00732421875,1.53369140625,6.5625,-16.9375,15.8125,33.8046875
632,1.01171875,-0.01025390625,1.532470703125,3.75,-19.6875,16.875,33.8046875
633,1.01171875,-0.01025390625,1.532470703125,3.75,-19.6875,16.875,33.8046875
635,1.01806640625,-0.02001953125,1.52880859375,0.9375,-22.1875,17.5,33.8046875
637,1.01806640625,-0.02001953125,1.52880859375,0.9375,-22.1875,17.5,33.8046875
639,1.01806640625,-0.02001953125,1.52880859375,0.9375,-22.1875,17.5,33.8046875
641,1.0244140625,-0.035888671875,1.5244140625,-1.6875,-24.75,17.75,33.8046875
643,1.0244140625,-0.035888671875,1.5244140625,-1.6875,-24.75,17.75,33.8046875
645,1.03125,-0.04833984375,1.515625,-3.4375,-26.625,17.4375,33.8046875
647,1.03125,-0.04833984375,1.515625,-3.4375,-26.625,17.4375,33.8046875
649,1.04150390625,-0.054931640625,1.505859375,-3.375,-27.9375,16.4375,33.8046875
651,1.04150390625,-0.054931640625,1.505859375,-3.375,-27.9375,16.4375,33.8046875
653,1.0478515625,-0.05810546875,1.493896484375,-1.6875,-29.0625,15.0,33.8046875
655,1.0478515625,-0.05810546875,1.493896484375,-1.6875,-29.0625,15.0,33.8046875
657,1.0478515625,-0.05810546875,1.493896484375,-1.6875,-29.0625,15.0,33.8046875
659,1.047607421875,-0.06005859375,1.482177734375,1.1875,-29.9375,13.6875,33.8046875
661,1.047607421875,-0.06005859375,1.482177734375,1.1875,-29.9375,13.6875,33.8046875
663,1.0380859375,-0.0576171875,1.47216796875,4.8125,-30.8125,12.5,33.8046875
665,1.0380859375,-0.0576171875,1.47216796875,4.8125,-30.8125,12.5,33.8046875
667,1.0224609375,-0.049072265625,1.465087890625,8.75,-31.625,11.5625,33.8046875
669,1.0224609375,-0.049072265625,1.465087890625,8.75,-31.625,11.5625,33.8046875
671,1.007080078125,-0.039306640625,1.458984375,12.1875,-32.0,11.4375,33.8046875
673,1.007080078125,-0.039306640625,1.458984375,12.1875,-32.0,11.4375,33.8046875
675,1.007080078125,-0.039306640625,1.458984375,12.1875,-48.0,12.3125,33.8046875
677,0.9931640625,-0.029296875,1.448974609375,14.5,-32.625,12.3125,33.8046875
679,0.9931640625,-0.029296875,1.448974609375,14.5,-32.625,12.3125,33.8046875
681,0.9775390625,-0.0205078125,1.43603515625,16.0625,-33.4375,14.625,33.8046875
683,0.9775390625,-0.0205078125,1.43603515625,16.0625,-33.4375,14.625,33.8046875
684,0.9599609375,-0.010986328125,1.41943359375,16.125,-34.125,17.8125,33.8046875
686,0.9599609375,-0.010986328125,1.41943359375,16.125,-34.125,17.8125,33.8046875
688,0.9599609375,-0.010986328125,1.41943359375,0.125,-34.75,21.5,33.8046875
690,0.94091796875,-0.005859375,1.39990234375,14.3125,-34.75,21.5,33.83984375
693,0.94091796875,-0.005859375,1.39990234375,14.3125,-34.75,21.5,33.83984375
695,0.918212890625,-0.003662109375,1.378173828125,11.25,-35.0,25.5625,33.83984375
696,0.918212890625,-0.003662109375,1.378173828125,11.25,-35.0,25.5625,33.83984375
698,0.888916015625,-0.00830078125,1.354736328125,7.375,-34.9375,30.0,33.83984375
700,0.888916015625,-0.00830078125,1.354736328125,7.375,-34.9375,30.0,33.83984375
702,0.857177734375,-0.019287109375,1.330322265625,3.375,-34.4375,34.375,33.83984375
704,0.857177734375,-0.019287109375,1.330322265625,3.375,-34.4375,34.375,33.83984375
706,0.857177734375,-0.019287109375,1.267822265625,-0.3125,-33.5,38.3125,33.83984375
708,0.8291015625,-0.029541015625,1.3017578125,-0.3125,-33.5,38.3125,33.83984375
710,0.8291015625,-0.029541015625,1.3017578125,-0.3125,-33.5,38.3125,33.83984375
712,0.795654296875,-0.038818359375,1.26806640625,-3.8125,-32.4375,41.4375,33.83984375
714,0.795654296875,-0.038818359375,1.26806640625,-3.8125,-32.4375,41.4375,33.83984375
716,0.755859375,-0.04931640625,1.23046875,-7.3125,-31.0625,43.6875,33.83984375
718,0.755859375,-0.04931640625,1.23046875,-7.3125,-31.0625,43.6875,33.83984375
720,0.718994140625,-0.068359375,1.1923828125,-11.0,-29.5625,45.125,33.83984375
722,0.718994140625,-0.068359375,1.1923828125,-11.0,-29.5625,45.125,33.83984375
724,0.718994140625,-0.068359375,1.1923828125,-14.8125,-26.8125,45.5,33.83984375
726,0.692138671875,-0.093505859375,1.158203125,-14.8125,-26.8125,45.5,33.83984375
728,0.692138671875,-0.093505859375,1.158203125,-14.8125,-26.8125,45.5,33.83984375
730,0.65087890625,-0.119140625,1.130859375,-18.0,-23.25,44.375,33.83984375
731,0.65087890625,-0.119140625,1.130859375,-18.0,-23.25,44.375,33.83984375
733,0.6220703125,-0.13916015625,1.09228515625,-21.375,-20.25,43.8125,33.83984375
736,0.6220703125,-0.13916015625,1.09228515625,-21.375,-20.25,43.8125,33.83984375
738,0.610595703125,-0.157958984375,1.06396484375,-23.75,-14.5625,42.8125,33.83984375
740,0.610595703125,-0.157958984375,1.06396484375,-23.75,-14.5625,42.8125,33.83984375
741,0.610595703125,-0.157958984375,1.038818359375,-24.5,-9.125,39.375,33.83984375
743,0.586181640625,-0.18359375,1.038818359375,-24.5,-9.125,39.375,33.83984375
745,0.586181640625,-0.18359375,1.038818359375,-24.5,-9.125,39.375,33.83984375
747,0.559326171875,-0.216064453125,1.0263671875,-25.1875,-4.1875,34.3125,33.83984375
749,0.559326171875,-0.216064453125,1.0263671875,-25.1875,-4.1875,34.3125,33.83984375
751,0.5380859375,-0.251220703125,1.033447265625,-25.875,1.375,27.5,33.83984375
753,0.5380859375,-0.251220703125,1.033447265625,-25.875,1.375,27.5,33.83984375
755,0.522216796875,-0.279541015625,1.046630859375,-25.5625,8.0,19.5,33.83984375
757,0.522216796875,-0.279541015625,1.046630859375,-25.5625,8.0,19.5,33.83984375
759,0.50830078125,-0.29443359375,1.0595703125,-23.375,15.9375,11.3125,33.83984375
761,0.50830078125,-0.29443359375,1.0595703125,-23.375,15.9375,11.3125,33.83984375
763,0.50830078125,-0.29443359375,1.0595703125,-23.375,15.9375,11.3125,33.83984375
765,0.492919921875,-0.296142578125,1.070068359375,-19.1875,24.75,3.0625,33.83984375
767,0.492919921875,-0.296142578125,1.070068359375,-19.1875,24.75,3.0625,33.83984375
769,0.477783203125,-0.29541015625,1.075439453125,-12.9375,34.0625,-4.875,33.83984375
771,0.477783203125,-0.29541015625,1.075439453125,-12.9375,34.0625,-4.875,33.83984375
773,0.45458984375,-0.28759765625,1.08056640625,-6.1875,43.5,-11.9375,33.83984375
775,0.45458984375,-0.28759765625,1.08056640625,-6.1875,43.5,-11.9375,33.83984375
776,0.45458984375,-0.28759765625,1.08056640625,-6.1875,43.5,-11.9375,33.83984375
779,0.42431640625,-0.2685546875,1.088623046875,0.4375,52.1875,-17.6875,33.83984375
781,0.42431640625,-0.2685546875,1.088623046875,0.4375,52.1875,-17.6875,33.83984375
783,0.39208984375,-0.254150390625,1.09912109375,7.0,60.25,-22.1875,33.83984375
785,0.39208984375,-0.254150390625,1.09912109375,7.0,60.25,-22.1875,33.83984375
787,0.3544921875,-0.246337890625,1.109619140625,14.125,67.1875,-25.0625,33.83984375
788,0.3544921875,-0.246337890625,1.109619140625,14.125,67.1875,-25.0625,33.83984375
790,0.312255859375,-0.2373046875,1.11865234375,21.125,72.6875,-26.625,33.83984375
792,0.312255859375,-0.2373046875,1.11865234375,21.125,72.6875,-26.625,33.83984375
794,0.312255859375,-0.2373046875,1.11865234375,21.125,72.6875,-26.625,33.83984375
796,0.269775390625,-0.222900390625,1.123291015625,28.1875,76.875,-26.9375,33.83984375
798,0.269775390625,-0.222900390625,1.123291015625,28.1875,76.875,-26.9375,33.83984375
801,0.226318359375,-0.202880859375,1.126953125,35.3125,79.875,-26.0625,33.83984375
803,0.226318359375,-0.202880859375,1.126953125,35.3125,79.875,-26.0625,33.83984375
804,0.18994140625,-0.186767578125,1.138671875,41.4375,81.875,-24.1875,33.83984375
806,0.18994140625,-0.186767578125,1.138671875,41.4375,81.875,-24.1875,33.83984375
808,0.164306640625,-0.180908203125,1.161376953125,45.25,83.1875,-23.4375,33.83984375
810,0.164306640625,-0.180908203125,1.161376953125,45.25,83.1875,-23.4375,33.83984375
812,0.164306640625,-0.180908203125,1.161376953125,45.25,83.1875,-23.4375,33.83984375
814,0.140625,-0.182861328125,1.20263671875,46.125,83.6875,-24.0625,33.83984375
816,0.140625,-0.182861328125,1.20263671875,46.125,83.6875,-24.0625,33.83984375
818,0.1162109375,-0.18310546875,1.25439453125,45.5,83.3125,-25.8125,33.83984375
820,0.1162109375,-0.18310546875,1.25439453125,45.5,83.3125,-25.8125,33.83984375
822,0.088134765625,-0.174560546875,1.301513671875,45.0,82.1875,-27.75,33.83984375
824,0.088134765625,-0.174560546875,1.301513671875,45.0,82.1875,-27.75,33.83984375
826,0.069580078125,-0.16845703125,1.332275390625,44.0,81.0625,-29.875,33.83984375
828,0.069580078125,-0.16845703125,1.332275390625,44.0,81.0625,-29.875,33.83984375
830,0.069580078125,-0.16845703125,1.332275390625,44.0,81.0625,-29.875,33.83984375
832,0.066162109375,-0.169189453125,1.359130859375,42.375,79.5625,-32.5625,33.8359375
834,0.066162109375,-0.169189453125,1.359130859375,42.375,79.5625,-32.5625,33.8359375
836,0.068603515625,-0.17041015625,1.38720703125,40.5,77.375,-35.625,33.8359375
838,0.068603515625,-0.17041015625,1.38720703125,40.5,77.375,-35.625,33.8359375
840,0.067626953125,-0.1650390625,1.41796875,38.5,74.375,-37.875,33.8359375
842,0.067626953125,-0.1650390625,1.41796875,38.5,74.375,-37.875,33.8359375
844,0.069091796875,-0.15234375,1.447021484375,36.375,71.0,-38.6875,33.8359375
846,0.069091796875,-0.15234375,1.447021484375,36.375,71.0,-38.6875,33.8359375
848,0.069091796875,-0.15234375,1.47412109375,34.5625,67.6875,-38.1875,33.8359375
850,0.075439453125,-0.138427734375,1.47412109375,34.5625,67.6875,-38.1875,33.8359375
852,0.075439453125,-0.138427734375,1.47412109375,34.5625,67.6875,-38.1875,33.8359375
854,0.0830078125,-0.1240234375,1.49169921875,33.25,64.125,-36.1875,33.8359375
856,0.0830078125,-0.1240234375,1.49169921875,33.25,64.125,-36.1875,33.8359375
858,0.086181640625,-0.109375,1.505859375,32.125,60.1875,-32.875,33.8359375
860,0.086181640625,-0.109375,1.505859375,32.125,60.1875,-32.875,33.8359375
862,0.084228515625,-0.08935546875,1.519775390625,29.9375,56.1875,-28.625,33.8359375
864,0.084228515625,-0.08935546875,1.519775390625,29.9375,56.1875,-28.625,33.8359375
866,0.072998046875,-0.0673828125,1.530029296875,25.75,51.4375,-22.9375,33.8359375
868,0.072998046875,-0.0673828125,1.530029296875,25.75,51.4375,-22.9375,33.8359375
870,0.055419921875,-0.04248046875,1.5380859375,20.0,47.25,-16.5625,33.8359375
872,0.055419921875,-0.04248046875,1.5380859375,20.0,47.25,-16.5625,33.8359375
874,0.055419921875,-0.04248046875,1.5380859375,20.0,43.0625,-10.125,33.8359375
876,0.03662109375,-0.018798828125,1.539794921875,13.0625,43.0625,-10.125,33.8359375
878,0.03662109375,-0.018798828125,1.539794921875,13.0625,43.0625,-10.125,33.8359375
880,0.0205078125,0.000732421875,1.530517578125,6.0625,38.8125,-3.6875,33.8359375
882,0.0205078125,0.000732421875,1.530517578125,6.0625,38.8125,-3.6875,33.8359375
884,0.010009765625,0.015380859375,1.51806640625,-1.3125,34.8125,3.0625,33.8359375
886,0.010009765625,0.015380859375,1.51806640625,-1.3125,34.8125,3.0625,33.8359375
888,0.010009765625,0.015380859375,1.51806640625,-1.3125,31.8125,9.8125,33.8359375
890,0.002685546875,0.027099609375,1.50146484375,-8.4375,31.8125,9.8125,33.8359375
892,0.002685546875,0.027099609375,1.50146484375,-8.4375,31.8125,9.8125,33.8359375
894,-0.000244140625,0.039306640625,1.48583984375,-15.3125,30.5,16.125,33.8359375
896,-0.000244140625,0.039306640625,1.48583984375,-15.3125,30.5,16.125,33.8359375
898,-0.007080078125,0.04931640625,1.4755859375,-21.9375,30.6875,21.5,33.8359375
900,-0.007080078125,0.04931640625,1.4755859375,-21.9375,30.6875,21.5,33.8359375
902,-0.021240234375,0.0498046875,1.4775390625,-27.875,32.0625,26.0,33.8359375
904,-0.021240234375,0.0498046875,1.4775390625,-27.875,32.0625,26.0,33.8359375
906,-0.039794921875,0.04052734375,1.48291015625,-32.75,34.125,29.4375,33.8359375
907,-0.039794921875,0.04052734375,1.48291015625,-32.75,34.125,29.4375,33.8359375
909,-0.039794921875,0.04052734375,1.48291015625,-32.75,34.125,29.4375,33.8359375
912,-0.058349609375,0.024658203125,1.48876953125,-36.125,35.9375,32.0625,33.8359375
914,-0.058349609375,0.024658203125,1.48876953125,-36.125,35.9375,32.0625,33.8359375
915,-0.072265625,0.001220703125,1.4951171875,-37.8125,37.6875,33.4375,33.8359375
917,-0.072265625,0.001220703125,1.4951171875,-37.8125,37.6875,33.4375,33.8359375
919,-0.08740234375,-0.02490234375,1.501708984375,-37.9375,39.3125,33.75,33.8359375
921,-0.08740234375,-0.02490234375,1.501708984375,-37.9375,39.3125,33.75,33.8359375
923,-0.08740234375,-0.055419921875,1.506591796875,-36.3125,40.6875,33.0,33.8359375
925,-0.102783203125,-0.055419921875,1.506591796875,-36.3125,40.6875,33.0,33.8359375
927,-0.102783203125,-0.055419921875,1.506591796875,-36.3125,40.6875,33.0,33.8359375
929,-0.119873046875,-0.090576171875,1.5146484375,-34.125,41.3125,31.3125,33.8359375
931,-0.119873046875,-0.090576171875,1.5146484375,-34.125,41.3125,31.3125,33.8359375
933,-0.1416015625,-0.131591796875,1.523681640625,-31.3125,40.3125,28.0,33.8359375
935,-0.1416015625,-0.131591796875,1.523681640625,-31.3125,40.3125,28.0,33.8359375
937,-0.17138671875,-0.1689453125,1.53125,-27.8125,37.5625,23.25,33.8359375
939,-0.17138671875,-0.1689453125,1.53125,-27.8125,37.5625,23.25,33.8359375
941,-0.17138671875,-0.1689453125,1.53125,-27.8125,37.5625,23.25,33.8359375
943,-0.201171875,-0.194580078125,1.531982421875,-23.25,33.6875,17.125,33.8359375
944,-0.201171875,-0.194580078125,1.531982421875,-23.25,33.6875,17.125,33.8359375
946,-0.22265625,-0.209228515625,1.52587890625,-17.8125,29.0,10.8125,33.8359375
948,-0.22265625,-0.209228515625,1.52587890625,-17.8125,29.0,10.8125,33.8359375
950,-0.236328125,-0.217529296875,1.50634765625,-12.4375,23.4375,4.375,33.8359375
952,-0.236328125,-0.217529296875,1.50634765625,-12.4375,23.4375,4.375,33.8359375
954,-0.236328125,-0.217529296875,1.50634765625,-12.4375,17.5,-1.8125,33.8359375
956,-0.24267578125,-0.22216796875,1.47900390625,-9.1875,17.5,-1.8125,33.8359375
958,-0.24267578125,-0.22216796875,1.47900390625,-9.1875,17.5,-1.8125,33.8359375
960,-0.246337890625,-0.22119140625,1.455322265625,-8.75,11.0625,-7.375,33.8359375
962,-0.246337890625,-0.22119140625,1.455322265625,-8.75,11.0625,-7.375,33.8359375
964,-0.24853515625,-0.21484375,1.441650390625,-10.1875,4.8125,-12.0625,33.8359375
966,-0.24853515625,-0.21484375,1.441650390625,-10.1875,4.8125,-12.0625,33.8359375
968,-0.247802734375,-0.210205078125,1.423828125,-12.8125,-0.4375,-15.5625,33.8359375
970,-0.247802734375,-0.210205078125,1.423828125,-12.8125,-0.4375,-15.5625,33.8359375
972,-0.247802734375,-0.210205078125,1.3994140625,-15.0,-5.25,-17.8125,33.8359375
974,-0.248779296875,-0.201416015625,1.3994140625,-15.0,-5.25,-17.8125,33.8671875
976,-0.248779296875,-0.201416015625,1.3994140625,-15.0,-5.25,-17.8125,33.8671875
978,-0.248291015625,-0.204345703125,1.365234375,-17.3125,-9.5625,-19.5625,33.8671875
980,-0.248291015625,-0.204345703125,1.365234375,-17.3125,-9.5625,-19.5625,33.8671875
982,-0.257080078125,-0.20751953125,1.318115234375,-23.875,-14.9375,-19.9375,33.8671875
984,-0.257080078125,-0.20751953125,1.318115234375,-23.875,-14.9375,-19.9375,33.8671875
986,-0.265869140625,-0.20068359375,1.288818359375,-33.3125,-20.6875,-20.25,33.8671875
988,-0.265869140625,-0.20068359375,1.288818359375,-33.3125,-20.6875,-20.25,33.8671875
990,-0.268310546875,-0.194091796875,1.279052734375,-43.3125,-25.4375,-20.9375,33.8671875
992,-0.268310546875,-0.194091796875,1.279052734375,-43.3125,-25.4375,-20.9375,33.8671875
994,-0.268310546875,-0.194091796875,1.279052734375,-43.3125,-25.4375,-20.9375,33.8671875
996,-0.271484375,-0.191650390625,1.262939453125,-53.25,-29.1875,-20.75,33.8671875
997,-0.271484375,-0.191650390625,1.262939453125,-53.25,-29.1875,-20.75,33.8671875
1000,-0.2724609375,-0.190673828125,1.230224609375,-60.6875,-32.8125,-19.8125,33.8671875
1002,-0.2724609375,-0.190673828125,1.230224609375,-60.6875,-32.8125,-19.8125,33.8671875
1004,-0.26220703125,-0.20166015625,1.193359375,-65.75,-36.375,-18.625,33.8671875
1006,-0.26220703125,-0.20166015625,1.193359375,-65.75,-36.375,-18.625,33.8671875
1007,-0.232666015625,-0.216064453125,1.1982421875,-69.4375,-39.625,-15.5625,33.8671875
1009,-0.232666015625,-0.216064453125,1.1982421875,-69.4375,-39.625,-15.5625,33.8671875
1011,-0.232666015625,-0.216064453125,1.1982421875,-69.4375,-39.625,-15.5625,33.8671875
1013,0.1376953125,-0.257080078125,1.17724609375,-61.6875,13.75,-4.25,33.8671875
1015,0.1376953125,-0.257080078125,1.17724609375,-61.6875,13.75,-4.25,33.8671875
1017,0.108642578125,-0.27197265625,1.177978515625,-19.5625,111.1875,-1.75,33.8671875
1019,0.108642578125,-0.27197265625,1.177978515625,-19.5625,111.1875,-1.75,33.8671875
1021,-0.23681640625,-0.267333984375,0.75146484375,-8.4375,121.9375,-14.25,33.8671875
1023,-0.23681640625,-0.267333984375,0.75146484375,-8.4375,121.9375,-14.25,33.8671875
1025,-0.40771484375,-0.2548828125,0.5693359375,-10.75,112.3125,-18.1875,33.8671875
1027,-0.40771484375,-0.2548828125,0.5693359375,-10.75,112.3125,-18.1875,33.8671875
1029,-0.40771484375,-0.2548828125,0.5693359375,-10.75,112.3125,-18.1875,33.8671875
1031,-0.4794921875,-0.222412109375,0.567626953125,-12.5,92.125,-15.8125,33.8671875
1033,-0.4794921875,-0.222412109375,0.567626953125,-12.5,92.125,-15.8125,33.8671875
1035,-0.500244140625,-0.172119140625,0.69970703125,-17.0625,68.75,-20.0625,33.8671875
1037,-0.500244140625,-0.172119140625,0.69970703125,-17.0625,68.75,-20.0625,33.8671875
1039,-0.482421875,-0.14990234375,0.858154296875,-23.6875,49.625,-28.0,33.8671875
1041,-0.482421875,-0.14990234375,0.858154296875,-23.6875,49.625,-28.0,33.8671875
1043,-0.436279296875,-0.177001953125,0.9677734375,-30.8125,34.875,-35.1875,33.8671875
1045,-0.436279296875,-0.177001953125,0.9677734375,-30.8125,34.875,-35.1875,33.8671875
1047,-0.436279296875,-0.177001953125,0.9677734375,-30.8125,34.875,-35.1875,33.8671875
1049,-0.38818359375,-0.224609375,1.048828125,-30.0,29.0625,-40.25,33.8671875
1051,-0.38818359375,-0.224609375,1.048828125,-30.0,29.0625,-40.25,33.8671875
1053,-0.376953125,-0.2744140625,1.080810546875,-23.75,24.0,-45.8125,33.8671875
1055,-0.376953125,-0.2744140625,1.080810546875,-23.75,24.0,-45.8125,33.8671875
1057,-0.388916015625,-0.306640625,1.101806640625,-17.3125,13.6875,-49.5,33.8671875
1059,-0.388916015625,-0.306640625,1.101806640625,-17.3125,13.6875,-49.5,33.8671875
1061,-0.37841796875,-0.319091796875,1.156982421875,-10.5625,5.0625,-51.4375,33.8671875
1062,-0.37841796875,-0.319091796875,1.156982421875,-10.5625,5.0625,-51.4375,33.8671875
1065,-0.31591796875,-0.317626953125,1.205810546875,-5.0,-3.75,-52.3125,33.8671875
1067,-0.36962890625,-0.317626953125,1.205810546875,-5.0,-3.75,-52.3125,33.8671875
1069,-0.36962890625,-0.317626953125,1.205810546875,-5.0,-3.75,-52.3125,33.8671875
1071,-0.36669921875,-0.3203125,1.228515625,-4.875,-14.4375,-54.375,33.8671875
1073,-0.36669921875,-0.3203125,1.228515625,-4.875,-14.4375,-54.375,33.8671875
1074,-0.337158203125,-0.3447265625,1.2373046875,-8.3125,-23.0625,-55.3125,33.8671875
1076,-0.337158203125,-0.3447265625,1.2373046875,-8.3125,-23.0625,-55.3125,33.8671875
1078,-0.3095703125,-0.381103515625,1.2265625,-12.5,-27.6875,-53.6875,33.8671875
1080,-0.3095703125,-0.381103515625,1.2265625,-12.5,-27.6875,-53.6875,33.8671875
1082,-0.3095703125,-0.381103515625,1.2265625,-12.5,-27.6875,-53.6875,33.8671875
1084,-0.323974609375,-0.40673828125,1.184326171875,-18.5,-31.375,-51.5625,33.8671875
1086,-0.323974609375,-0.40673828125,1.184326171875,-18.5,-31.375,-51.5625,33.8671875
1088,-0.375244140625,-0.4150390625,1.125244140625,-28.0,-36.3125,-50.625,33.8671875
1090,-0.375244140625,-0.4150390625,1.125244140625,-28.0,-36.3125,-50.625,33.8671875
1092,-0.425048828125,-0.419677734375,1.069091796875,-39.4375,-41.75,-51.125,33.8671875
1094,-0.425048828125,-0.419677734375,1.069091796875,-39.4375,-41.75,-51.125,33.8671875
1096,-0.425048828125,-0.482177734375,1.013427734375,-50.25,-46.1875,-52.4375,33.8671875
1098,-0.454833984375,-0.43798828125,1.013427734375,-50.25,-46.1875,-52.4375,33.8671875
1100,-0.454833984375,-0.43798828125,1.013427734375,-50.25,-46.1875,-52.4375,33.8671875
1102,-0.46435546875,-0.458740234375,0.9462890625,-59.75,-47.625,-54.6875,33.8671875
1104,-0.46435546875,-0.458740234375,0.9462890625,-59.75,-47.625,-54.6875,33.8671875
1106,-0.469482421875,-0.461181640625,0.874755859375,-68.125,-44.9375,-57.625,33.8671875
1108,-0.469482421875,-0.461181640625,0.874755859375,-68.125,-44.9375,-57.625,33.8671875
1110,-0.48388671875,-0.4404296875,0.82177734375,-75.25,-40.1875,-62.5625,33.8671875
1112,-0.48388671875,-0.4404296875,0.82177734375,-75.25,-40.1875,-62.5625,33.8671875
1114,-0.50341796875,-0.408203125,0.785400390625,-81.9375,-35.6875,-70.0,33.82421875
1116,-0.50341796875,-0.408203125,0.785400390625,-81.9375,-35.6875,-70.0,33.82421875
1118,-0.50341796875,-0.408203125,0.785400390625,-81.9375,-35.6875,-70.0,33.82421875
1119,-0.52587890625,-0.38134765625,0.751220703125,-87.1875,-32.5625,-79.25,33.82421875
1121,-0.52587890625,-0.38134765625,0.751220703125,-87.1875,-32.5625,-79.25,33.82421875
1123,-0.55078125,-0.3681640625,0.72216796875,-90.375,-30.875,-89.0625,33.82421875
1125,-0.55078125,-0.3681640625,0.72216796875,-90.375,-30.875,-89.0625,33.82421875
1127,-0.571044921875,-0.361083984375,0.702880859375,-91.375,-29.8125,-98.5625,33.82421875
1130,-0.571044921875,-0.361083984375,0.702880859375,-91.375,-29.8125,-98.5625,33.82421875
1131,-0.5810546875,-0.344970703125,0.701416015625,-89.6875,-28.0,-106.8125,33.82421875
1133,-0.5810546875,-0.344970703125,0.701416015625,-89.6875,-28.0,-106.8125,33.82421875
1135,-0.5810546875,-0.344970703125,0.701416015625,-89.6875,-28.0,-106.8125,33.82421875
1137,-0.5859375,-0.317138671875,0.714599609375,-85.0625,-24.75,-113.125,33.82421875
1139,-0.5859375,-0.317138671875,0.714599609375,-85.0625,-24.75,-113.125,33.82421875
1141,-0.585205078125,-0.29150390625,0.726318359375,-77.0,-21.3125,-116.9375,33.82421875
1143,-0.585205078125,-0.29150390625,0.726318359375,-77.0,-21.3125,-116.9375,33.82421875
1145,-0.58447265625,-0.261962890625,0.731201171875,-66.5625,-19.0,-117.3125,33.82421875
1147,-0.58447265625,-0.261962890625,0.731201171875,-66.5625,-19.0,-117.3125,33.82421875
1149,-0.58447265625,-0.261962890625,0.731201171875,-66.5625,-19.0,-117.3125,33.82421875
1151,-0.58837890625,-0.2236328125,0.7392578125,-55.8125,-17.4375,-114.5625,33.82421875
1153,-0.58837890625,-0.2236328125,0.7392578125,-55.8125,-17.4375,-114.5625,33.82421875
1155,-0.5947265625,-0.18212890625,0.756103515625,-46.0,-15.8125,-109.625,33.82421875
1157,-0.5947265625,-0.18212890625,0.756103515625,-46.0,-15.8125,-109.625,33.82421875
1158,-0.5908203125,-0.142822265625,0.780517578125,-37.375,-13.5,-103.5625,33.82421875
1160,-0.5908203125,-0.142822265625,0.780517578125,-37.375,-13.5,-103.5625,33.82421875
1162,-0.5908203125,-0.142822265625,0.804931640625,-30.375,-11.5,-96.75,33.82421875
1164,-0.572265625,-0.119140625,0.804931640625,-30.375,-11.5,-96.75,33.82421875
1166,-0.572265625,-0.119140625,0.804931640625,-30.375,-11.5,-96.75,33.82421875
1168,-0.554443359375,-0.131591796875,0.8173828125,-24.875,-10.75,-89.9375,33.82421875
1170,-0.554443359375,-0.131591796875,0.8173828125,-24.875,-10.75,-89.9375,33.82421875
1172,-0.54248046875,-0.16162109375,0.81591796875,-20.9375,-10.75,-83.0,33.82421875
1174,-0.54248046875,-0.16162109375,0.81591796875,-20.9375,-10.75,-83.0,33.82421875
1176,-0.534912109375,-0.185546875,0.82421875,-17.0,-10.4375,-77.0,33.82421875
1178,-0.534912109375,-0.185546875,0.82421875,-17.0,-10.4375,-77.0,33.82421875
1180,-0.534912109375,-0.185546875,0.840576171875,-12.0625,-8.375,-72.0,33.82421875
1182,-0.53759765625,-0.19384765625,0.840576171875,-12.0625,-8.375,-72.0,33.82421875
1184,-0.53759765625,-0.19384765625,0.840576171875,-12.0625,-8.375,-72.0,33.82421875
1186,-0.54736328125,-0.1884765625,0.856201171875,-6.375,-4.9375,-67.3125,33.82421875
1188,-0.54736328125,-0.1884765625,0.856201171875,-6.375,-4.9375,-67.3125,33.82421875
1190,-0.55810546875,-0.1826171875,0.86865234375,-0.75,-1.0,-62.875,33.82421875
1192,-0.55810546875,-0.1826171875,0.86865234375,-0.75,-1.0,-62.875,33.82421875
1194,-0.569580078125,-0.180419921875,0.878662109375,3.125,2.4375,-59.3125,33.82421875
1196,-0.569580078125,-0.180419921875,0.878662109375,3.125,2.4375,-59.3125,33.82421875
1198,-0.586181640625,-0.1767578125,0.88720703125,4.6875,5.125,-56.875,33.82421875
1200,-0.586181640625,-0.1767578125,0.88720703125,4.6875,5.125,-56.875,33.82421875
1202,-0.586181640625,-0.1767578125,0.88720703125,4.6875,5.125,-56.875,33.82421875
1204,-0.591552734375,-0.167724609375,0.896484375,4.9375,7.25,-56.125,33.82421875
1206,-0.591552734375,-0.167724609375,0.896484375,4.9375,7.25,-56.125,33.82421875
1207,-0.577392578125,-0.14794921875,0.91455078125,4.625,9.8125,-57.125,33.82421875
1209,-0.577392578125,-0.14794921875,0.91455078125,4.625,9.8125,-57.125,33.82421875
1211,-0.548095703125,-0.11669921875,0.951904296875,4.75,12.5,-59.0,33.82421875
1213,-0.548095703125,-0.11669921875,0.951904296875,4.75,12.5,-59.0,33.82421875
1216,-0.523681640625,-0.081787109375,1.005126953125,4.3125,15.125,-61.0,33.82421875
1218,-0.523681640625,-0.081787109375,1.005126953125,4.3125,15.125,-61.0,33.82421875
1219,-0.523681640625,-0.081787109375,1.005126953125,4.3125,15.125,-61.0,33.82421875
1221,-0.504150390625,-0.057861328125,1.064208984375,2.9375,16.9375,-61.875,33.82421875
1223,-0.504150390625,-0.057861328125,1.064208984375,2.9375,16.9375,-61.875,33.82421875
1225,-0.48779296875,-0.044677734375,1.11376953125,1.5625,16.25,-61.3125,33.82421875
1227,-0.48779296875,-0.044677734375,1.11376953125,1.5625,16.25,-61.3125,33.82421875
1229,-0.466552734375,-0.03955078125,1.1455078125,0.6875,11.375,-59.125,33.82421875
1231,-0.466552734375,-0.03955078125,1.1455078125,0.6875,11.375,-59.125,33.82421875
1233,-0.466552734375,-0.03955078125,1.1455078125,0.6875,11.375,-59.125,33.82421875
1235,-0.43603515625,-0.045654296875,1.155029296875,0.875,2.8125,-56.0625,33.82421875
1237,-0.43603515625,-0.045654296875,1.155029296875,0.875,2.8125,-56.0625,33.82421875
1239,-0.403564453125,-0.057861328125,1.15185546875,2.375,-7.75,-52.1875,33.82421875
1242,-0.403564453125,-0.057861328125,1.15185546875,2.375,-7.75,-52.1875,33.82421875
1243,-0.374755859375,-0.05712890625,1.138671875,5.375,-18.9375,-47.5625,33.82421875
1247,-0.361328125,-0.04931640625,1.109619140625,8.1875,-30.25,-42.375,33.82421875
1249,-0.361328125,-0.04931640625,1.109619140625,8.1875,-30.25,-42.375,33.82421875
1252,-0.35302734375,-0.047607421875,1.06884765625,9.25,-40.875,-37.4375,33.82421875
1254,-0.35302734375,-0.047607421875,1.06884765625,9.25,-40.875,-37.4375,33.82421875
1256,-0.34521484375,-0.048095703125,1.017333984375,8.9375,-50.5625,-33.0,33.859375
1258,-0.34521484375,-0.048095703125,1.017333984375,8.9375,-50.5625,-33.0,33.859375
1260,-0.34765625,-0.052978515625,0.959716796875,7.8125,-58.875,-29.25,33.859375
1262,-0.34765625,-0.052978515625,0.959716796875,7.8125,-58.875,-29.25,33.859375
1264,-0.34765625,-0.0634765625,0.903564453125,6.0625,-65.75,-27.4375,33.859375
1266,-0.34521484375,-0.0634765625,0.903564453125,6.0625,-65.75,-27.4375,33.859375
1268,-0.34521484375,-0.0634765625,0.903564453125,6.0625,-65.75,-27.4375,33.859375
1270,-0.330322265625,-0.07373046875,0.85107421875,4.1875,-70.875,-27.0625,33.859375
1272,-0.330322265625,-0.07373046875,0.85107421875,4.1875,-70.875,-27.0625,33.859375
1274,-0.31201171875,-0.07958984375,0.80322265625,2.4375,-74.625,-27.6875,33.859375
1276,-0.31201171875,-0.07958984375,0.80322265625,2.4375,-74.625,-27.6875,33.859375
1278,-0.294677734375,-0.084228515625,0.765869140625,1.0,-76.5625,-28.25,33.859375
1280,-0.294677734375,-0.084228515625,0.765869140625,1.0,-76.5625,-28.25,33.859375
1282,-0.294677734375,-0.084228515625,0.744384765625,-0.625,-77.0,-28.9375,33.859375
1284,-0.27734375,-0.084228515625,0.744384765625,-0.625,-77.0,-28.9375,33.859375
1287,-0.26416015625,-0.081787109375,0.726806640625,-2.3125,-76.4375,-29.4375,33.859375
1289,-0.26416015625,-0.081787109375,0.726806640625,-2.3125,-76.4375,-29.4375,33.859375
1291,-0.26416015625,-0.081787109375,0.726806640625,-2.3125,-75.75,-29.875,33.859375
1293,-0.25634765625,-0.07763671875,0.703369140625,-3.6875,-75.75,-29.875,33.859375
1295,-0.25634765625,-0.07763671875,0.703369140625,-3.6875,-75.75,-29.875,33.859375
1296,-0.248291015625,-0.079345703125,0.67626953125,-4.4375,-75.5625,-30.25,33.859375
1298,-0.248291015625,-0.079345703125,0.67626953125,-4.4375,-75.5625,-30.25,33.859375
1300,-0.22314453125,-0.0810546875,0.65185546875,-4.625,-75.3125,-30.6875,33.859375
1303,-0.22314453125,-0.0810546875,0.65185546875,-4.625,-75.3125,-30.6875,33.859375
1305,-0.18994140625,-0.0771484375,0.631103515625,-3.9375,-74.9375,-30.6875,33.859375
1307,-0.18994140625,-0.0771484375,0.631103515625,-3.9375,-74.9375,-30.6875,33.859375
1309,-0.15771484375,-0.0673828125,0.617431640625,-2.6875,-74.5625,-30.3125,33.859375
1311,-0.15771484375,-0.0673828125,0.617431640625,-2.6875,-74.5625,-30.3125,33.859375
1313,-0.15771484375,-0.0673828125,0.617431640625,-2.6875,-74.5625,-30.3125,33.859375
1315,-0.134521484375,-0.05078125,0.603271484375,-1.9375,-74.5,-29.25,33.859375
1317,-0.134521484375,-0.05078125,0.603271484375,-1.9375,-74.5,-29.25,33.859375
1318,-0.118896484375,-0.03466796875,0.5771484375,-2.9375,-75.5625,-28.125,33.859375
1320,-0.118896484375,-0.03466796875,0.5771484375,-2.9375,-75.5625,-28.125,33.859375
1322,-0.1015625,-0.02490234375,0.53515625,-5.5,-77.5625,-27.125,33.859375
1324,-0.1015625,-0.02490234375,0.53515625,-5.5,-77.5625,-27.125,33.859375
1326,-0.0810546875,-0.017333984375,0.494873046875,-8.4375,-79.5,-25.625,33.859375
1329,-0.0810546875,-0.017333984375,0.494873046875,-8.4375,-79.5,-25.625,33.859375
1331,-0.0810546875,-0.017333984375,0.494873046875,-11.4375,-80.1875,-23.6875,33.859375
1333,-0.06201171875,-0.014892578125,0.45947265625,-11.4375,-80.1875,-23.6875,33.859375
1334,-0.06201171875,-0.014892578125,0.45947265625,-11.4375,-80.1875,-23.6875,33.859375
1336,-0.044189453125,-0.017333984375,0.4326171875,-14.0625,-80.0,-22.0,33.859375
1338,-0.044189453125,-0.017333984375,0.4326171875,-14.0625,-80.0,-22.0,33.859375
1340,-0.0234375,-0.017333984375,0.406005859375,-15.6875,-79.75,-21.25,33.859375
1342,-0.0234375,-0.017333984375,0.406005859375,-15.6875,-79.75,-21.25,33.859375
1344,0.00830078125,-0.01806640625,0.372314453125,-15.75,-80.0625,-21.3125,33.859375
1346,0.00830078125,-0.01806640625,0.372314453125,-15.75,-80.0625,-21.3125,33.859375
1348,0.00830078125,-0.01806640625,0.372314453125,-15.75,-80.0625,-21.3125,33.859375
1351,0.051513671875,-0.0234375,0.339111328125,-13.3125,-80.3125,-21.5,33.859375
1352,0.051513671875,-0.0234375,0.339111328125,-13.3125,-80.3125,-21.5,33.859375
1354,0.09814453125,-0.03369140625,0.314453125,-7.75,-79.3125,-21.5,33.859375
1356,0.09814453125,-0.03369140625,0.314453125,-7.75,-79.3125,-21.5,33.859375
1358,0.132080078125,-0.04248046875,0.295654296875,-1.0,-76.625,-20.5,33.859375
1360,0.132080078125,-0.04248046875,0.295654296875,-1.0,-76.625,-20.5,33.859375
1362,0.149169921875,-0.044921875,0.279296875,6.625,-72.625,-19.125,33.859375
1364,0.149169921875,-0.044921875,0.279296875,6.625,-72.625,-19.125,33.859375
1366,0.149169921875,-0.044921875,0.279296875,6.625,-72.625,-19.125,33.859375
1368,0.15234375,-0.031005859375,0.260986328125,14.5,-67.875,-18.0,33.859375
1370,0.15234375,-0.031005859375,0.260986328125,14.5,-67.875,-18.0,33.859375
1372,0.142333984375,-0.01123046875,0.239013671875,20.8125,-62.0,-16.8125,33.859375
1374,0.142333984375,-0.01123046875,0.239013671875,20.8125,-62.0,-16.8125,33.859375
1376,0.131591796875,-0.002685546875,0.21435546875,24.5625,-55.0625,-15.1875,33.859375
1378,0.131591796875,-0.002685546875,0.21435546875,24.5625,-55.0625,-15.1875,33.859375
1380,0.129150390625,-0.00537109375,0.194091796875,25.0625,-47.5,-13.0625,33.859375
1382,0.129150390625,-0.00537109375,0.194091796875,25.0625,-47.5,-13.0625,33.859375
1384,0.129150390625,-0.00537109375,0.131591796875,22.5625,-39.25,-10.75,33.859375
1386,0.13134765625,-0.01416015625,0.185302734375,22.5625,-39.25,-10.75,33.859375
1388,0.13134765625,-0.01416015625,0.185302734375,22.5625,-39.25,-10.75,33.859375
1390,0.139892578125,-0.022705078125,0.1923828125,17.8125,-30.5625,-8.375,33.859375
1391,0.139892578125,-0.022705078125,0.1923828125,17.8125,-30.5625,-8.375,33.859375
1393,0.15234375,-0.03173828125,0.20947265625,12.0625,-21.875,-6.6875,33.859375
1396,0.15234375,-0.03173828125,0.20947265625,12.0625,-21.875,-6.6875,33.859375
1398,0.168701171875,-0.03955078125,0.232177734375,6.75,-13.625,-5.6875,33.85546875
1400,0.168701171875,-0.03955078125,0.232177734375,6.75,-13.625,-5.6875,33.85546875
1402,0.18701171875,-0.04931640625,0.260986328125,2.8125,-5.6875,-5.0,33.85546875
1403,0.18701171875,-0.04931640625,0.260986328125,2.8125,-5.6875,-5.0,33.85546875
1405,0.18701171875,-0.04931640625,0.260986328125,2.8125,-5.6875,-5.0,33.85546875
1408,0.20263671875,-0.061767578125,0.290283203125,0.3125,1.6875,-4.25,33.85546875
1409,0.20263671875,-0.061767578125,0.290283203125,0.3125,1.6875,-4.25,33.85546875
1411,0.211669921875,-0.07177734375,0.322265625,-1.25,8.0,-3.375,33.85546875
1413,0.211669921875,-0.07177734375,0.322265625,-1.25,8.0,-3.375,33.85546875
1415,0.221923828125,-0.08349609375,0.349853515625,-1.375,13.0,-2.6875,33.85546875
1418,0.221923828125,-0.08349609375,0.349853515625,-1.375,13.0,-2.6875,33.85546875
1420,0.23486328125,-0.093994140625,0.366943359375,0.0625,16.0,-2.125,33.85546875
1421,0.23486328125,-0.093994140625,0.366943359375,0.0625,16.0,-2.125,33.85546875
1423,0.23486328125,-0.093994140625,0.366943359375,0.0625,16.0,-2.125,33.85546875
1425,0.252685546875,-0.103515625,0.3798828125,2.9375,17.1875,-1.1875,33.85546875
1427,0.252685546875,-0.103515625,0.3798828125,2.9375,17.1875,-1.1875,33.85546875
1429,0.272705078125,-0.11181640625,0.385986328125,6.0625,16.8125,0.0,33.85546875
1431,0.272705078125,-0.11181640625,0.385986328125,6.0625,16.8125,0.0,33.85546875
1433,0.28662109375,-0.12255859375,0.388427734375,8.625,16.125,1.8125,33.85546875
1435,0.28662109375,-0.12255859375,0.388427734375,8.625,16.125,1.8125,33.85546875
1437,0.28662109375,-0.12255859375,0.388427734375,8.625,16.125,1.8125,33.85546875
1439,0.293701171875,-0.135498046875,0.39404296875,10.875,15.6875,3.9375,33.85546875
1441,0.293701171875,-0.135498046875,0.39404296875,10.875,15.6875,3.9375,33.85546875
1444,0.292724609375,-0.149169921875,0.403076171875,12.6875,15.5625,6.375,33.85546875
1446,0.28271484375,-0.165283203125,0.421630859375,14.25,15.8125,8.75,33.85546875
1448,0.28271484375,-0.165283203125,0.421630859375,14.25,15.8125,8.75,33.85546875
1450,0.28271484375,-0.165283203125,0.421630859375,14.25,15.8125,8.75,33.85546875
1452,0.273193359375,-0.1787109375,0.44775390625,16.0625,16.375,10.8125,33.85546875
1454,0.273193359375,-0.1787109375,0.44775390625,16.0625,16.375,10.8125,33.85546875
1455,0.262451171875,-0.1923828125,0.47802734375,17.625,16.8125,13.0,33.85546875
1457,0.262451171875,-0.1923828125,0.47802734375,17.625,16.8125,13.0,33.85546875
1459,0.252685546875,-0.210205078125,0.509765625,18.625,16.8125,15.125,33.85546875
1462,0.252685546875,-0.210205078125,0.509765625,18.625,16.8125,15.125,33.85546875
1464,0.24267578125,-0.22802734375,0.545654296875,19.125,16.6875,17.0625,33.85546875
1466,0.24267578125,-0.22802734375,0.545654296875,19.125,16.6875,17.0625,33.85546875
1468,0.24267578125,-0.22802734375,0.545654296875,19.125,16.6875,17.0625,33.85546875
1469,0.22998046875,-0.24267578125,0.5849609375,19.0625,16.8125,19.0,33.85546875
1471,0.22998046875,-0.24267578125,0.5849609375,19.0625,16.8125,19.0,33.85546875
1473,0.208740234375,-0.253662109375,0.6240234375,18.5,16.75,20.5625,33.85546875
1475,0.208740234375,-0.253662109375,0.6240234375,18.5,16.75,20.5625,33.85546875
1477,0.179931640625,-0.2607421875,0.65869140625,17.75,16.0625,21.25,33.85546875
1479,0.179931640625,-0.2607421875,0.65869140625,17.75,16.0625,21.25,33.85546875
1481,0.179931640625,-0.2607421875,0.65869140625,17.75,16.0625,21.1875,33.85546875
1484,0.153564453125,-0.260498046875,0.68994140625,16.75,14.8125,21.1875,33.85546875
1486,0.153564453125,-0.260498046875,0.68994140625,16.75,14.8125,21.1875,33.85546875
1487,0.129638671875,-0.258056640625,0.717041015625,15.1875,12.875,20.9375,33.85546875
1489,0.129638671875,-0.258056640625,0.717041015625,15.1875,12.875,20.9375,33.85546875
1491,0.111572265625,-0.258544921875,0.732177734375,13.1875,10.6875,19.6875,33.85546875
1493,0.111572265625,-0.258544921875,0.732177734375,13.1875,10.6875,19.6875,33.85546875
1495,0.1064453125,-0.26416015625,0.738525390625,10.0625,7.8125,17.8125,33.85546875
1497,0.1064453125,-0.26416015625,0.738525390625,10.0625,7.8125,17.8125,33.85546875
1499,0.1064453125,-0.26416015625,0.738525390625,6.8125,4.5625,15.5625,33.85546875
1501,0.114990234375,-0.26953125,0.735595703125,6.8125,4.5625,15.5625,33.85546875
1503,0.114990234375,-0.26953125,0.735595703125,6.8125,4.5625,15.5625,33.85546875
1505,0.13916015625,-0.269775390625,0.730224609375,3.875,1.3125,12.9375,33.85546875
1507,0.13916015625,-0.269775390625,0.730224609375,3.875,1.3125,12.9375,33.85546875
1509,0.173828125,-0.268310546875,0.7294921875,1.25,-1.1875,10.25,33.85546875
1511,0.173828125,-0.268310546875,0.7294921875,1.25,-1.1875,10.25,33.85546875
1513,0.20703125,-0.270263671875,0.73486328125,-1.5,-2.5625,8.0,33.85546875
1515,0.20703125,-0.270263671875,0.73486328125,-1.5,-2.5625,8.0,33.85546875
1516,0.20703125,-0.270263671875,0.73486328125,-1.5,-2.5625,8.0,33.85546875
1518,0.21923828125,-0.277587890625,0.744384765625,-4.5,-3.375,7.3125,33.85546875
1520,0.21923828125,-0.277587890625,0.744384765625,-4.5,-3.375,7.3125,33.85546875
1522,0.211669921875,-0.287353515625,0.75146484375,-7.3125,-4.8125,7.5,33.85546875
1524,0.211669921875,-0.287353515625,0.75146484375,-7.3125,-4.8125,7.5,33.85546875
1526,0.195556640625,-0.29541015625,0.757080078125,-8.9375,-6.4375,8.25,33.85546875
1528,0.195556640625,-0.29541015625,0.757080078125,-8.9375,-6.4375,8.25,33.85546875
1530,0.180908203125,-0.298583984375,0.762451171875,-9.5625,-8.1875,9.0625,33.85546875
1533,0.180908203125,-0.298583984375,0.762451171875,-9.5625,-8.1875,9.0625,33.85546875
1534,0.180908203125,-0.298583984375,0.769287109375,-8.625,-10.0625,9.1875,33.85546875
1536,0.17626953125,-0.311279296875,0.769287109375,-8.625,-10.0625,9.1875,33.85546875
1538,0.17626953125,-0.311279296875,0.769287109375,-8.625,-10.0625,9.1875,33.85546875
1540,0.17626953125,-0.32080078125,0.779296875,-6.375,-11.4375,9.0625,33.83203125
1542,0.17626953125,-0.32080078125,0.779296875,-6.375,-11.4375,9.0625,33.83203125
1544,0.172119140625,-0.325927734375,0.7880859375,-3.9375,-12.25,9.0625,33.83203125
1546,0.172119140625,-0.325927734375,0.7880859375,-3.9375,-12.25,9.0625,33.83203125
1548,0.164794921875,-0.3251953125,0.791015625,-1.1875,-13.0625,8.4375,33.83203125
1550,0.164794921875,-0.3251953125,0.791015625,-1.1875,-13.0625,8.4375,33.83203125
1552,0.15771484375,-0.318115234375,0.7880859375,1.8125,-13.9375,7.8125,33.83203125
1554,0.15771484375,-0.318115234375,0.7880859375,1.8125,-13.9375,7.8125,33.83203125
1556,0.15771484375,-0.318115234375,0.7880859375,1.8125,-13.9375,7.8125,33.83203125
1558,0.157958984375,-0.308349609375,0.781494140625,4.875,-14.25,7.125,33.83203125
1560,0.157958984375,-0.308349609375,0.781494140625,4.875,-14.25,7.125,33.83203125
1562,0.161376953125,-0.29931640625,0.776123046875,7.6875,-14.375,6.625,33.83203125
1564,0.161376953125,-0.29931640625,0.776123046875,7.6875,-14.375,6.625,33.83203125
1566,0.1689453125,-0.290283203125,0.771240234375,10.5,-14.0,6.25,33.83203125
1568,0.1689453125,-0.290283203125,0.771240234375,10.5,-14.0,6.25,33.83203125
1570,0.179931640625,-0.270263671875,0.766845703125,12.5,-13.3125,5.75,33.83203125
1572,0.179931640625,-0.270263671875,0.766845703125,12.5,-13.3125,5.75,33.83203125
1574,0.179931640625,-0.25341796875,0.763427734375,13.875,-12.0625,5.375,33.83203125
1576,0.189208984375,-0.25341796875,0.763427734375,13.875,-12.0625,5.375,33.83203125
1578,0.189208984375,-0.25341796875,0.763427734375,13.875,-12.0625,5.375,33.83203125
1580,0.193115234375,-0.243408203125,0.764892578125,14.75,-10.1875,5.0,33.83203125
1582,0.193115234375,-0.243408203125,0.764892578125,14.75,-10.1875,5.0,33.83203125
1584,0.193115234375,-0.23583984375,0.771728515625,15.5,-8.0,4.625,33.83203125
1586,0.193115234375,-0.23583984375,0.771728515625,15.5,-8.0,4.625,33.83203125
1588,0.193115234375,-0.22900390625,0.78369140625,16.375,-5.5625,4.25,33.83203125
1590,0.193115234375,-0.22900390625,0.78369140625,16.375,-5.5625,4.25,33.83203125
1592,0.193115234375,-0.22900390625,0.78369140625,16.375,-5.5625,4.25,33.83203125
1594,0.189208984375,-0.22412109375,0.797607421875,17.5,-2.875,4.3125,33.83203125
1596,0.189208984375,-0.22412109375,0.797607421875,17.5,-2.875,4.3125,33.83203125
1598,0.183837890625,-0.22119140625,0.81494140625,19.0,-0.375,4.6875,33.83203125
1600,0.183837890625,-0.22119140625,0.81494140625,19.0,-0.375,4.6875,33.83203125
1602,0.173095703125,-0.221923828125,0.832275390625,20.4375,2.4375,5.375,33.83203125
1604,0.173095703125,-0.221923828125,0.832275390625,20.4375,2.4375,5.375,33.83203125
1606,0.160888671875,-0.2216796875,0.85107421875,21.8125,4.875,6.4375,33.83203125
1608,0.160888671875,-0.2216796875,0.85107421875,21.8125,4.875,6.4375,33.83203125
1610,0.160888671875,-0.218505859375,0.870849609375,22.6875,6.6875,7.1875,33.83203125
1612,0.15478515625,-0.218505859375,0.870849609375,22.6875,6.6875,7.1875,33.83203125
1614,0.15478515625,-0.218505859375,0.870849609375,22.6875,6.6875,7.1875,33.83203125
1616,0.152099609375,-0.21533203125,0.88525390625,22.9375,8.0,7.625,33.83203125
1618,0.152099609375,-0.21533203125,0.88525390625,22.9375,8.0,7.625,33.83203125
1620,0.1513671875,-0.2119140625,0.895751953125,22.625,8.6875,8.25,33.83203125
1622,0.1513671875,-0.2119140625,0.895751953125,22.625,8.6875,8.25,33.83203125
1624,0.14501953125,-0.2080078125,0.904296875,21.875,9.125,8.75,33.83203125
1626,0.14501953125,-0.2080078125,0.904296875,21.875,9.125,8.75,33.83203125
1628,0.129638671875,-0.2041015625,0.913330078125,21.125,9.0625,9.125,33.83203125
1630,0.129638671875,-0.2041015625,0.913330078125,21.125,9.0625,9.125,33.83203125
1631,0.129638671875,-0.2041015625,0.913330078125,21.125,9.0625,9.125,33.83203125
1633,0.109375,-0.19287109375,0.919921875,20.5,8.5625,9.3125,33.83203125
1635,0.109375,-0.19287109375,0.919921875,20.5,8.5625,9.3125,33.83203125
1637,0.090576171875,-0.17919921875,0.92041015625,20.3125,7.25,9.125,33.83203125
1640,0.090576171875,-0.17919921875,0.92041015625,20.3125,7.25,9.125,33.83203125
1644,0.08837890625,-0.169189453125,0.9140625,20.0,5.125,8.6875,33.83203125
1646,0.08935546875,-0.155029296875,0.912353515625,19.125,2.375,8.125,33.83203125
1648,0.08935546875,-0.155029296875,0.912353515625,19.125,2.375,8.125,33.83203125
1650,0.084716796875,-0.147216796875,0.911376953125,17.8125,0.0,7.9375,33.83203125
1653,0.084716796875,-0.147216796875,0.911376953125,17.8125,0.0,7.9375,33.83203125
1654,0.080078125,-0.1474609375,0.912841796875,17.25,-1.5,7.6875,33.83203125
1656,0.080078125,-0.1474609375,0.912841796875,17.25,-1.5,7.6875,33.83203125
1658,0.080078125,-0.1474609375,0.912841796875,17.25,-2.9375,7.5,33.83203125
1660,0.07080078125,-0.148681640625,0.919921875,17.5,-2.9375,7.5,33.83203125
1662,0.07080078125,-0.148681640625,0.919921875,17.5,-2.9375,7.5,33.83203125
1664,0.055419921875,-0.149169921875,0.93115234375,18.8125,-4.4375,7.125,33.83203125
1667,0.055419921875,-0.149169921875,0.93115234375,18.8125,-4.4375,7.125,33.83203125
1669,0.037353515625,-0.1494140625,0.9453125,21.1875,-5.8125,6.375,33.83203125
1671,0.037353515625,-0.1494140625,0.9453125,21.1875,-5.8125,6.375,33.83203125
1673,0.023193359375,-0.146240234375,0.95556640625,24.375,-7.125,5.75,33.83203125
1675,0.023193359375,-0.146240234375,0.95556640625,24.375,-7.125,5.75,33.83203125
1677,0.0126953125,-0.145751953125,0.960693359375,28.1875,-8.8125,5.3125,33.83203125
1678,0.0126953125,-0.145751953125,0.960693359375,28.1875,-8.8125,5.3125,33.83203125
1680,0.0126953125,-0.145751953125,0.960693359375,28.1875,-8.8125,5.3125,33.83203125
1682,0.006591796875,-0.145263671875,0.959716796875,31.75,-10.375,4.875,33.875
1684,0.006591796875,-0.145263671875,0.959716796875,31.75,-10.375,4.875,33.875
1686,0.00244140625,-0.140869140625,0.953369140625,34.5,-11.5,4.5,33.875
1689,0.00244140625,-0.140869140625,0.953369140625,34.5,-11.5,4.5,33.875
1691,-0.00634765625,-0.13427734375,0.94580078125,36.5,-12.1875,4.375,33.875
1693,-0.00634765625,-0.13427734375,0.94580078125,36.5,-12.1875,4.375,33.875
1695,-0.016357421875,-0.12451171875,0.9384765625,37.75,-12.9375,4.25,33.875
1697,-0.016357421875,-0.12451171875,0.9384765625,37.75,-12.9375,4.25,33.875
1698,-0.026611328125,-0.113525390625,0.93505859375,38.4375,-13.6875,4.5625,33.875
1700,-0.026611328125,-0.113525390625,0.93505859375,38.4375,-13.6875,4.5625,33.875
1702,-0.026611328125,-0.113525390625,0.93505859375,38.4375,-13.6875,4.5625,33.875
1704,-0.033935546875,-0.096923828125,0.9287109375,38.4375,-15.0,4.6875,33.875
1706,-0.033935546875,-0.096923828125,0.9287109375,38.4375,-15.0,4.6875,33.875
1708,-0.037841796875,-0.07666015625,0.917724609375,37.375,-17.0,4.75,33.875
1710,-0.037841796875,-0.07666015625,0.917724609375,37.375,-17.0,4.75,33.875
1713,-0.042236328125,-0.058837890625,0.90478515625,35.375,-19.5,4.5,33.875
1714,-0.042236328125,-0.058837890625,0.90478515625,35.375,-19.5,4.5,33.875
1716,-0.0517578125,-0.04541015625,0.884521484375,31.9375,-22.5625,4.1875,33.875
1718,-0.0517578125,-0.04541015625,0.884521484375,31.9375,-22.5625,4.1875,33.875
1720,-0.0517578125,-0.04541015625,0.884521484375,31.9375,-22.5625,4.1875,33.875
1722,-0.06640625,-0.044921875,0.856689453125,28.0,-25.875,3.125,33.875
1724,-0.06640625,-0.044921875,0.856689453125,28.0,-25.875,3.125,33.875
1726,-0.0830078125,-0.050048828125,0.8310546875,24.0625,-29.375,0.6875,33.875
1728,-0.0830078125,-0.050048828125,0.8310546875,24.0625,-29.375,0.6875,33.875
1730,-0.09423828125,-0.05126953125,0.806884765625,21.0,-32.8125,-2.8125,33.875
1732,-0.09423828125,-0.05126953125,0.806884765625,21.0,-32.8125,-2.8125,33.875
1734,-0.09423828125,-0.044189453125,0.785888671875,18.5625,-36.5,-6.75,33.875
1736,-0.105712890625,-0.044189453125,0.785888671875,18.5625,-36.5,-6.75,33.875
1738,-0.105712890625,-0.044189453125,0.785888671875,18.5625,-36.5,-6.75,33.875
1740,-0.119384765625,-0.033447265625,0.76416015625,16.1875,-40.4375,-11.0625,33.875
1742,-0.119384765625,-0.033447265625,0.76416015625,16.1875,-40.4375,-11.0625,33.875
1744,-0.12353515625,-0.025634765625,0.739501953125,13.9375,-44.25,-15.3125,33.875
1746,-0.12353515625,-0.025634765625,0.739501953125,13.9375,-44.25,-15.3125,33.875
1748,-0.1171875,-0.02294921875,0.71484375,11.4375,-48.0625,-19.125,33.875
1750,-0.1171875,-0.02294921875,0.71484375,11.4375,-48.0625,-19.125,33.875
1751,-0.1171875,-0.02294921875,0.71484375,8.6875,-51.25,-22.1875,33.875
1753,-0.10595703125,-0.02197265625,0.70068359375,8.6875,-51.25,-22.1875,33.875
1755,-0.10595703125,-0.02197265625,0.70068359375,8.6875,-51.25,-22.1875,33.875
1757,-0.0927734375,-0.016845703125,0.700927734375,7.0,-53.5,-24.5,33.875
1760,-0.0927734375,-0.016845703125,0.700927734375,7.0,-53.5,-24.5,33.875
1762,-0.0693359375,-0.005859375,0.709228515625,6.0,-55.4375,-26.5,33.875
1763,-0.0693359375,-0.005859375,0.709228515625,6.0,-55.4375,-26.5,33.875
1765,-0.03662109375,0.010498046875,0.715576171875,5.125,-57.25,-28.0625,33.875
1767,-0.03662109375,0.010498046875,0.715576171875,5.125,-57.25,-28.0625,33.875
1769,-0.03662109375,0.010498046875,0.715576171875,5.125,-57.25,-28.375,33.875
1771,-0.007568359375,0.025146484375,0.714599609375,3.8125,-59.375,-28.375,33.875
1773,-0.007568359375,0.025146484375,0.714599609375,3.8125,-59.375,-28.375,33.875
1775,0.00439453125,0.036376953125,0.711669921875,2.3125,-61.125,-27.375,33.875
1777,0.00439453125,0.036376953125,0.711669921875,2.3125,-61.125,-27.375,33.875
1779,-0.000244140625,0.037841796875,0.71240234375,1.0625,-62.0625,-25.1875,33.875
1780,-0.000244140625,0.037841796875,0.71240234375,1.0625,-62.0625,-25.1875,33.875
1783,-0.01171875,0.033935546875,0.712890625,0.9375,-62.5625,-22.125,33.875
1785,-0.01171875,0.033935546875,0.712890625,0.9375,-62.5625,-22.125,33.875
1787,-0.01171875,0.033935546875,0.712890625,0.9375,-62.5625,-18.8125,33.875
1789,-0.014892578125,0.03125,0.70703125,3.75,-62.9375,-18.8125,33.875
1790,-0.014892578125,0.03125,0.70703125,3.75,-62.9375,-18.8125,33.875
1792,-0.002197265625,0.029296875,0.697021484375,9.9375,-63.4375,-15.0,33.875
1794,-0.002197265625,0.029296875,0.697021484375,9.9375,-63.4375,-15.0,33.875
1796,0.01708984375,0.0234375,0.69189453125,18.75,-63.6875,-11.5625,33.875
1798,0.01708984375,0.0234375,0.69189453125,18.75,-63.6875,-11.5625,33.875
1800,0.01708984375,0.0234375,0.69189453125,18.75,-63.0,-8.125,33.875
1802,0.04052734375,0.01416015625,0.701416015625,29.3125,-63.0,-8.125,33.875
1804,0.04052734375,0.01416015625,0.701416015625,29.3125,-63.0,-8.125,33.875
1806,0.05908203125,0.00830078125,0.720703125,41.375,-61.25,-3.9375,33.875
1808,0.05908203125,0.00830078125,0.720703125,41.375,-61.25,-3.9375,33.875
1810,0.072998046875,0.009033203125,0.741455078125,54.625,-58.375,0.3125,33.875
1812,0.072998046875,0.009033203125,0.741455078125,54.625,-58.375,0.3125,33.875
1814,0.0791015625,0.012451171875,0.76416015625,68.8125,-54.625,4.625,33.875
1816,0.0791015625,0.012451171875,0.76416015625,68.8125,-54.625,4.625,33.875
1818,0.0732421875,0.017822265625,0.78857421875,82.4375,-50.1875,9.0625,33.875
1821,0.0732421875,0.017822265625,0.78857421875,82.4375,-50.1875,9.0625,33.875
1823,0.064208984375,0.0224609375,0.8203125,93.875,-45.625,13.6875,33.86328125
1825,0.064208984375,0.0224609375,0.8203125,93.875,-45.625,13.6875,33.86328125
1827,0.056396484375,0.023681640625,0.858154296875,103.1875,-40.5625,18.375,33.86328125
1829,0.056396484375,0.023681640625,0.858154296875,103.1875,-40.5625,18.375,33.86328125
1831,0.0498046875,0.0234375,0.896484375,110.375,-35.6875,23.375,33.86328125
1833,0.0498046875,0.0234375,0.896484375,110.375,-35.6875,23.375,33.86328125
1835,0.0498046875,0.0234375,0.896484375,110.375,-35.6875,23.375,33.86328125
1837,0.04248046875,0.02001953125,0.93017578125,115.3125,-31.3125,28.5,33.86328125
1839,0.04248046875,0.02001953125,0.93017578125,115.3125,-31.3125,28.5,33.86328125
1841,0.037109375,0.00732421875,0.95947265625,118.1875,-27.5,33.5625,33.86328125
1843,0.037109375,0.00732421875,0.95947265625,118.1875,-27.5,33.5625,33.86328125
1845,0.03369140625,-0.0166015625,0.983154296875,118.8125,-24.9375,37.75,33.86328125
1847,0.03369140625,-0.0166015625,0.983154296875,118.8125,-24.9375,37.75,33.86328125
1849,0.03369140625,-0.044921875,1.004638671875,117.0,-23.625,40.375,33.86328125
1851,0.029296875,-0.044921875,1.004638671875,117.0,-23.625,40.375,33.86328125
1854,0.018798828125,-0.06787109375,1.026611328125,113.4375,-23.5625,41.9375,33.86328125
1856,0.018798828125,-0.06787109375,1.026611328125,113.4375,-23.5625,41.9375,33.86328125
1858,0.018798828125,-0.083251953125,1.045654296875,108.8125,-24.5625,43.125,33.86328125
1860,0.0107421875,-0.083251953125,1.045654296875,108.8125,-24.5625,43.125,33.86328125
1862,0.0107421875,-0.083251953125,1.045654296875,108.8125,-24.5625,43.125,33.86328125
1863,0.02099609375,-0.094970703125,1.046630859375,102.375,-26.9375,43.625,33.86328125
1866,0.02099609375,-0.094970703125,1.046630859375,102.375,-26.9375,43.625,33.86328125
1867,0.04443359375,-0.10595703125,1.031494140625,93.0,-30.4375,43.375,33.86328125
1869,0.04443359375,-0.10595703125,1.031494140625,93.0,-30.4375,43.375,33.86328125
1871,0.063232421875,-0.12109375,1.01708984375,80.5625,-33.875,42.125,33.86328125
1874,0.063232421875,-0.12109375,1.01708984375,80.5625,-33.875,42.125,33.86328125
1876,0.0625,-0.1435546875,1.015869140625,65.625,-36.1875,39.75,33.86328125
1878,0.0625,-0.1435546875,1.015869140625,65.625,-36.1875,39.75,33.86328125
1880,0.0625,-0.1435546875,1.015869140625,65.625,-37.375,36.8125,33.86328125
1882,0.0498046875,-0.169189453125,1.0302734375,50.25,-37.375,36.8125,33.86328125
1884,0.0498046875,-0.169189453125,1.0302734375,50.25,-37.375,36.8125,33.86328125
1886,0.023681640625,-0.181884765625,1.052001953125,36.8125,-38.0,33.375,33.86328125
1887,0.023681640625,-0.181884765625,1.052001953125,36.8125,-38.0,33.375,33.86328125
1889,-0.006591796875,-0.180908203125,1.069091796875,26.0,-39.5,30.4375,33.86328125
1892,-0.006591796875,-0.180908203125,1.069091796875,26.0,-39.5,30.4375,33.86328125
1894,-0.021240234375,-0.17333984375,1.077392578125,16.875,-41.875,27.5,33.86328125
1896,-0.021240234375,-0.17333984375,1.077392578125,16.875,-41.875,27.5,33.86328125
1898,-0.02001953125,-0.1669921875,1.081298828125,8.5625,-44.5625,25.125,33.86328125
1900,-0.02001953125,-0.1669921875,1.081298828125,8.5625,-44.5625,25.125,33.86328125
1902,-0.02001953125,-0.1669921875,1.081298828125,8.5625,-44.5625,23.625,33.86328125
1904,-0.016357421875,-0.162109375,1.09033203125,1.6875,-46.75,23.625,33.86328125
1906,-0.016357421875,-0.162109375,1.09033203125,1.6875,-46.75,23.625,33.86328125
1908,-0.01611328125,-0.158447265625,1.093017578125,-3.25,-48.1875,22.9375,33.86328125
1910,-0.01611328125,-0.158447265625,1.093017578125,-3.25,-48.1875,22.9375,33.86328125
1911,-0.011474609375,-0.150390625,1.076171875,-6.0,-49.75,22.9375,33.86328125
1913,-0.011474609375,-0.150390625,1.076171875,-6.0,-49.75,22.9375,33.86328125
1915,-0.011474609375,-0.137939453125,1.03466796875,-7.3125,-52.4375,23.375,33.86328125
1917,0.0185546875,-0.137939453125,1.03466796875,-7.3125,-52.4375,23.375,33.86328125
1920,0.066162109375,-0.12939453125,0.98388671875,-8.5625,-56.1875,23.625,33.86328125
1922,0.066162109375,-0.12939453125,0.98388671875,-8.5625,-56.1875,23.625,33.86328125
1925,0.119384765625,-0.127685546875,0.932861328125,-9.8125,-59.5,23.125,33.86328125
1929,0.166015625,-0.11767578125,0.893798828125,-10.75,-60.9375,22.8125,33.86328125
1931,0.166015625,-0.11767578125,0.893798828125,-10.75,-60.9375,22.8125,33.86328125
1933,0.166015625,-0.11767578125,0.893798828125,-10.75,-60.9375,22.8125,33.86328125
1935,0.1962890625,-0.102783203125,0.86572265625,-10.5625,-60.125,22.9375,33.86328125
1936,0.1962890625,-0.102783203125,0.86572265625,-10.5625,-60.125,22.9375,33.86328125
1938,0.212646484375,-0.08203125,0.839599609375,-9.25,-57.9375,23.0625,33.86328125
1940,0.212646484375,-0.08203125,0.839599609375,-9.25,-57.9375,23.0625,33.86328125
1942,0.22509765625,-0.0654296875,0.810791015625,-7.625,-55.25,23.75,33.86328125
1945,0.22509765625,-0.0654296875,0.810791015625,-7.625,-55.25,23.75,33.86328125
1947,0.238525390625,-0.0703125,0.783447265625,-5.9375,-52.25,24.75,33.86328125
1949,0.238525390625,-0.0703125,0.783447265625,-5.9375,-52.25,24.75,33.86328125
1951,0.238525390625,-0.0703125,0.783447265625,-5.9375,-52.25,25.1875,33.86328125
1953,0.250732421875,-0.10107421875,0.77001953125,-4.4375,-48.0625,25.1875,33.86328125
1955,0.250732421875,-0.10107421875,0.77001953125,-4.4375,-48.0625,25.1875,33.86328125
1957,0.258056640625,-0.133056640625,0.777587890625,-2.625,-41.75,25.3125,33.86328125
1959,0.258056640625,-0.133056640625,0.777587890625,-2.625,-41.75,25.3125,33.86328125
1961,0.2607421875,-0.1533203125,0.79443359375,0.5625,-33.5,25.0625,33.86328125
1963,0.2607421875,-0.1533203125,0.79443359375,0.5625,-33.5,25.0625,33.86328125
1965,0.25341796875,-0.166259765625,0.81591796875,5.0625,-23.875,24.625,33.8671875
1967,0.25341796875,-0.166259765625,0.81591796875,5.0625,-23.875,24.625,33.8671875
1969,0.234130859375,-0.176513671875,0.8408203125,9.75,-13.8125,23.5,33.8671875
1971,0.234130859375,-0.176513671875,0.8408203125,9.75,-13.8125,23.5,33.8671875
1973,0.234130859375,-0.176513671875,0.8408203125,9.75,-13.8125,23.5,33.8671875
1975,0.210205078125,-0.181884765625,0.87060546875,13.75,-4.4375,22.0625,33.8671875
1977,0.210205078125,-0.181884765625,0.87060546875,13.75,-4.4375,22.0625,33.8671875
1978,0.190185546875,-0.18359375,0.897705078125,17.5,3.6875,20.625,33.8671875
1980,0.190185546875,-0.18359375,0.897705078125,17.5,3.6875,20.625,33.8671875
1982,0.181640625,-0.177734375,0.919189453125,21.0,10.4375,19.8125,33.8671875
1984,0.181640625,-0.177734375,0.919189453125,21.0,10.4375,19.8125,33.8671875
1986,0.181640625,-0.16943359375,0.934814453125,23.625,15.1875,19.4375,33.8671875
1988,0.18017578125,-0.16943359375,0.934814453125,23.625,15.1875,19.4375,33.8671875
1990,0.18017578125,-0.16943359375,0.934814453125,23.625,17.875,18.375,33.8671875
1992,0.182373046875,-0.168212890625,0.95654296875,25.4375,17.875,18.375,33.8671875
1994,0.182373046875,-0.168212890625,0.95654296875,25.4375,17.875,18.375,33.8671875
1996,0.194091796875,-0.16259765625,0.976806640625,26.9375,17.75,16.3125,33.8671875
1998,0.194091796875,-0.16259765625,0.976806640625,26.9375,17.75,16.3125,33.8671875
2000,0.2294921875,-0.132080078125,0.97705078125,28.5625,15.9375,14.5,33.8671875
2002,0.2294921875,-0.132080078125,0.97705078125,28.5625,15.9375,14.5,33.8671875
2004,0.281005859375,-0.07861328125,0.952880859375,28.8125,12.625,14.1875,33.8671875
2006,0.281005859375,-0.07861328125,0.952880859375,28.8125,12.625,14.1875,33.8671875
2008,0.281005859375,-0.07861328125,0.952880859375,28.8125,12.625,14.1875,33.8671875
2010,0.3251953125,-0.029296875,0.92333984375,24.25,8.25,16.4375,33.8671875
2012,0.3251953125,-0.029296875,0.92333984375,24.25,8.25,16.4375,33.8671875
2015,0.377685546875,-0.004150390625,0.884521484375,13.625,4.4375,20.8125,33.8671875
2017,0.377685546875,0.001220703125,0.84521484375,-1.4375,-0.375,25.375,33.8671875
2019,0.42724609375,0.001220703125,0.84521484375,-1.4375,-0.375,25.375,33.8671875
2021,0.42724609375,0.001220703125,0.84521484375,-1.4375,-0.375,25.375,33.8671875
2023,0.44482421875,-0.010498046875,0.81884765625,-16.4375,-5.125,28.875,33.8671875
2025,0.44482421875,-0.010498046875,0.81884765625,-16.4375,-5.125,28.875,33.8671875
2027,0.44580078125,-0.0322265625,0.810302734375,-28.0625,-9.25,31.0,33.8671875
2029,0.44580078125,-0.0322265625,0.810302734375,-28.0625,-9.25,31.0,33.8671875
2031,0.443115234375,-0.064697265625,0.820556640625,-33.5625,-11.875,31.5,33.8671875
2033,0.443115234375,-0.064697265625,0.820556640625,-33.5625,-11.875,31.5,33.8671875
2035,0.433349609375,-0.103759765625,0.8359375,-36.0625,-13.3125,31.625,33.8671875
2037,0.433349609375,-0.103759765625,0.8359375,-36.0625,-13.3125,31.625,33.8671875
2039,0.433349609375,-0.103759765625,0.8359375,-36.0625,-13.3125,31.625,33.8671875
2041,0.413330078125,-0.139892578125,0.8486328125,-37.5,-13.625,31.5625,33.8671875
2043,0.413330078125,-0.139892578125,0.8486328125,-37.5,-13.625,31.5625,33.8671875
2045,0.38671875,-0.170654296875,0.851318359375,-37.625,-12.0625,31.5625,33.8671875
2047,0.38671875,-0.170654296875,0.851318359375,-37.625,-12.0625,31.5625,33.8671875
2049,0.344482421875,-0.1923828125,0.833251953125,-39.8125,-8.125,33.25,33.8671875
2051,0.344482421875,-0.1923828125,0.833251953125,-39.8125,-8.125,33.25,33.8671875
2053,0.336181640625,-0.197998046875,0.8681640625,-39.375,-2.9375,35.5,33.8671875
2055,0.336181640625,-0.197998046875,0.8681640625,-39.375,-2.9375,35.5,33.8671875
2058,0.34423828125,-0.19921875,0.91796875,-30.4375,4.0,34.5,33.8671875
2060,0.34423828125,-0.19921875,0.91796875,-30.4375,4.0,34.5,33.8671875
2062,0.326904296875,-0.201904296875,0.94287109375,-18.9375,12.3125,32.5,33.8671875
2063,0.326904296875,-0.201904296875,0.94287109375,-18.9375,12.3125,32.5,33.8671875
2065,0.326904296875,-0.201904296875,0.94287109375,-18.9375,12.3125,32.5,33.8671875
2067,0.29296875,-0.1982421875,0.940185546875,-8.0625,20.75,30.0625,33.8671875
2069,0.29296875,-0.1982421875,0.940185546875,-8.0625,20.75,30.0625,33.8671875
2071,0.264404296875,-0.18359375,0.92578125,0.625,26.5,28.0,33.8671875
2073,0.264404296875,-0.18359375,0.92578125,0.625,26.5,28.0,33.8671875
2075,0.258056640625,-0.1611328125,0.912841796875,6.75,29.9375,25.25,33.8671875
2077,0.258056640625,-0.1611328125,0.912841796875,6.75,29.9375,25.25,33.8671875
2079,0.258056640625,-0.1611328125,0.912841796875,6.75,29.9375,25.25,33.8671875
2081,0.2783203125,-0.1357421875,0.898681640625,9.3125,32.6875,23.0,33.8671875
2084,0.2783203125,-0.1357421875,0.898681640625,8.4375,35.5,21.5,33.8671875
2086,0.317626953125,-0.11376953125,0.88134765625,8.4375,35.5,21.5,33.8671875
2087,0.317626953125,-0.11376953125,0.88134765625,8.4375,35.5,21.5,33.8671875
2089,0.362548828125,-0.098876953125,0.865478515625,5.0625,38.5,21.0,33.8671875
2091,0.362548828125,-0.098876953125,0.865478515625,5.0625,38.5,21.0,33.8671875
2093,0.401611328125,-0.089111328125,0.86279296875,0.5625,42.1875,21.75,33.8671875
2095,0.401611328125,-0.089111328125,0.86279296875,0.5625,42.1875,21.75,33.8671875
2097,0.443115234375,-0.08544921875,0.88134765625,-3.8125,46.1875,22.375,33.8671875
2099,0.443115234375,-0.08544921875,0.88134765625,-3.8125,46.1875,22.375,33.8671875
2101,0.443115234375,-0.08544921875,0.88134765625,-3.8125,46.1875,22.375,33.8671875
2103,0.469482421875,-0.10205078125,0.908447265625,-6.5,50.3125,21.0,33.8671875
2105,0.469482421875,-0.10205078125,0.908447265625,-6.5,50.3125,21.0,33.8671875
2107,0.4521484375,-0.122802734375,0.935546875,-8.75,51.6875,21.25,33.8828125
2109,0.4521484375,-0.122802734375,0.935546875,-8.75,51.6875,21.25,33.8828125
2111,0.43994140625,-0.140625,0.9873046875,-10.375,54.625,16.3125,33.8828125
2113,0.43994140625,-0.140625,0.9873046875,-10.375,54.625,16.3125,33.8828125
2115,0.41845703125,-0.180419921875,1.01806640625,-8.6875,57.1875,13.6875,33.8828125
2119,0.41845703125,-0.180419921875,1.01806640625,-8.6875,57.1875,13.6875,33.8828125
2123,0.369140625,-0.22119140625,1.04931640625,-3.5,59.25,14.8125,33.8828125
2125,0.32177734375,-0.236572265625,1.0888671875,2.9375,59.5625,17.5,33.8828125
2127,0.32177734375,-0.236572265625,1.0888671875,2.9375,59.5625,17.5,33.8828125
2129,0.290771484375,-0.226806640625,1.126708984375,8.0,58.6875,18.5625,33.8828125
2131,0.290771484375,-0.226806640625,1.126708984375,8.0,58.6875,18.5625,33.8828125
2133,0.27978515625,-0.21142578125,1.153076171875,11.0625,57.3125,15.3125,33.8828125
2135,0.27978515625,-0.21142578125,1.153076171875,11.0625,57.3125,15.3125,33.8828125
2137,0.27587890625,-0.205078125,1.172119140625,12.75,56.0,10.375,33.8828125
2139,0.27587890625,-0.205078125,1.172119140625,12.75,56.0,10.375,33.8828125
2141,0.27587890625,-0.205078125,1.172119140625,12.75,56.0,10.375,33.8828125
2143,0.26953125,-0.197265625,1.18798828125,13.375,55.1875,5.3125,33.8828125
2145,0.26953125,-0.197265625,1.18798828125,13.375,55.1875,5.3125,33.8828125
2147,0.255615234375,-0.17626953125,1.202880859375,13.1875,54.3125,1.5,33.8828125
2149,0.255615234375,-0.17626953125,1.202880859375,13.1875,54.3125,1.5,33.8828125
2151,0.232177734375,-0.145263671875,1.215576171875,11.8125,53.125,-0.6875,33.8828125
2153,0.232177734375,-0.145263671875,1.215576171875,11.8125,53.125,-0.6875,33.8828125
2156,0.21044921875,-0.1142578125,1.224365234375,10.0625,51.375,-2.25,33.8828125
2158,0.21044921875,-0.1142578125,1.224365234375,10.0625,51.375,-2.25,33.8828125
2159,0.193603515625,-0.0869140625,1.22998046875,8.4375,48.4375,-2.75,33.8828125
2161,0.193603515625,-0.0869140625,1.22998046875,8.4375,48.4375,-2.75,33.8828125
2163,0.193603515625,-0.0869140625,1.22998046875,8.4375,48.4375,-2.75,33.8828125
2165,0.193115234375,-0.072265625,1.23486328125,7.0625,45.0,-2.3125,33.8828125
2167,0.193115234375,-0.072265625,1.23486328125,7.0625,45.0,-2.3125,33.8828125
2169,0.204833984375,-0.072021484375,1.2392578125,6.3125,41.125,-1.5,33.8828125
2171,0.204833984375,-0.072021484375,1.2392578125,6.3125,41.125,-1.5,33.8828125
2173,0.2177734375,-0.078369140625,1.245849609375,6.25,37.5,-0.625,33.8828125
2174,0.2177734375,-0.078369140625,1.245849609375,6.25,37.5,-0.625,33.8828125
2177,0.229736328125,-0.0888671875,1.25048828125,7.0,34.25,-0.1875,33.8828125
2179,0.229736328125,-0.0888671875,1.25048828125,7.0,34.25,-0.1875,33.8828125
2181,0.229736328125,-0.0888671875,1.25048828125,7.0,34.25,-0.1875,33.8828125
2183,0.23779296875,-0.095703125,1.242919921875,8.625,30.6875,-0.0625,33.8828125
2185,0.23779296875,-0.095703125,1.242919921875,8.625,30.6875,-0.0625,33.8828125
2186,0.254638671875,-0.1015625,1.2275390625,10.875,27.125,-0.375,33.8828125
2189,0.254638671875,-0.1015625,1.2275390625,10.875,27.125,-0.375,33.8828125
2190,0.275634765625,-0.11181640625,1.21044921875,13.0625,23.8125,-1.0625,33.8828125
2192,0.275634765625,-0.11181640625,1.21044921875,13.0625,23.8125,-1.0625,33.8828125
2194,0.275634765625,-0.11181640625,1.21044921875,15.125,21.5625,-2.5625,33.8828125
2196,0.298828125,-0.124755859375,1.197509765625,15.125,21.5625,-2.5625,33.8828125
2199,0.298828125,-0.124755859375,1.197509765625,15.125,21.5625,-2.5625,33.8828125
2201,0.3203125,-0.13232421875,1.18994140625,17.125,20.625,-4.0625,33.8828125
2202,0.3203125,-0.13232421875,1.18994140625,17.125,20.625,-4.0625,33.8828125
2204,0.331787109375,-0.130615234375,1.19140625,18.1875,20.625,-5.5,33.8828125
2206,0.331787109375,-0.130615234375,1.19140625,18.1875,20.625,-5.5,33.8828125
2208,0.334228515625,-0.12255859375,1.193359375,17.875,20.8125,-6.125,33.8828125
2210,0.334228515625,-0.12255859375,1.193359375,17.875,20.8125,-6.125,33.8828125
2212,0.334228515625,-0.12255859375,1.193359375,16.5625,20.8125,-6.0,33.8828125
2214,0.33935546875,-0.114013671875,1.19287109375,16.5625,20.8125,-6.0,33.8828125
2216,0.33935546875,-0.114013671875,1.19287109375,16.5625,20.8125,-6.0,33.8828125
2218,0.34228515625,-0.098388671875,1.1923828125,13.4375,20.5625,-5.0625,33.8828125
2220,0.34228515625,-0.098388671875,1.1923828125,13.4375,20.5625,-5.0625,33.8828125
2222,0.33837890625,-0.084716796875,1.195068359375,8.9375,20.5,-3.4375,33.8828125
2224,0.33837890625,-0.084716796875,1.195068359375,8.9375,20.5,-3.4375,33.8828125
2226,0.330810546875,-0.07958984375,1.198486328125,4.0,20.875,-1.75,33.8828125
2228,0.330810546875,-0.07958984375,1.198486328125,4.0,20.875,-1.75,33.8828125
2230,0.3173828125,-0.082275390625,1.203369140625,-0.875,21.4375,-0.1875,33.8828125
2232,0.3173828125,-0.082275390625,1.203369140625,-0.875,21.4375,-0.1875,33.8828125
2234,0.3173828125,-0.082275390625,1.203369140625,-0.875,21.9375,0.8125,33.8828125
2236,0.3046875,-0.087158203125,1.213134765625,-4.6875,21.9375,0.8125,33.8828125
2238,0.3046875,-0.087158203125,1.213134765625,-4.6875,21.9375,0.8125,33.8828125
2240,0.2900390625,-0.0908203125,1.22314453125,-7.375,22.125,1.5625,33.8828125
2242,0.2900390625,-0.0908203125,1.22314453125,-7.375,22.125,1.5625,33.8828125
2244,0.272705078125,-0.0888671875,1.22998046875,-8.6875,21.8125,1.8125,33.8828125
2246,0.272705078125,-0.0888671875,1.22998046875,-8.6875,21.8125,1.8125,33.8828125
2248,0.256591796875,-0.082763671875,1.23486328125,-8.5625,21.0,1.375,33.859375
2250,0.256591796875,-0.082763671875,1.23486328125,-8.5625,21.0,1.375,33.859375
2252,0.256591796875,-0.082763671875,1.23486328125,-8.5625,21.0,0.6875,33.859375
2254,0.245361328125,-0.08154296875,1.24365234375,-7.625,20.0625,0.6875,33.859375
2256,0.245361328125,-0.08154296875,1.24365234375,-7.625,20.0625,0.6875,33.859375
2258,0.2431640625,-0.07666015625,1.2548828125,-6.125,19.25,-0.5,33.859375
2260,0.2431640625,-0.07666015625,1.2548828125,-6.125,19.25,-0.5,33.859375
2262,0.2421875,-0.0634765625,1.263916015625,-4.125,18.125,-1.5625,33.859375
2264,0.2421875,-0.0634765625,1.263916015625,-4.125,18.125,-1.5625,33.859375
2266,0.24072265625,-0.04443359375,1.26513671875,-1.125,16.6875,-2.375,33.859375
2268,0.24072265625,-0.04443359375,1.26513671875,-1.125,16.6875,-2.375,33.859375
2270,0.237060546875,-0.0263671875,1.260986328125,2.375,14.9375,-2.9375,33.859375
2272,0.237060546875,-0.0263671875,1.260986328125,2.375,14.9375,-2.9375,33.859375
2274,0.241943359375,-0.0107421875,1.250732421875,5.8125,13.1875,-3.25,33.859375
2276,0.241943359375,-0.0107421875,1.250732421875,5.8125,13.1875,-3.25,33.859375
2278,0.241943359375,-0.0107421875,1.250732421875,5.8125,13.1875,-3.25,33.859375
2280,0.260009765625,-0.001220703125,1.236572265625,8.8125,11.625,-3.0,33.859375
2282,0.260009765625,-0.001220703125,1.236572265625,8.8125,11.625,-3.0,33.859375
2284,0.2900390625,0.005126953125,1.219970703125,10.375,10.0625,-1.875,33.859375
2286,0.2900390625,0.005126953125,1.219970703125,10.375,10.0625,-1.875,33.859375
2288,0.32275390625,0.00732421875,1.20751953125,10.5625,8.5625,-0.375,33.859375
2290,0.32275390625,0.00732421875,1.20751953125,10.5625,8.5625,-0.375,33.859375
2292,0.342041015625,0.011474609375,1.201416015625,9.125,7.375,1.75,33.859375
2295,0.342041015625,0.011474609375,1.201416015625,9.125,7.375,1.75,33.859375
2296,0.343505859375,0.016357421875,1.198486328125,6.4375,7.0625,3.875,33.859375
2298,0.343505859375,0.016357421875,1.198486328125,6.4375,7.0625,3.875,33.859375
2300,0.343505859375,0.016357421875,1.198486328125,6.4375,7.0625,3.875,33.859375
2302,0.33056640625,0.01708984375,1.197998046875,3.0,7.8125,6.375,33.859375
2304,0.33056640625,0.01708984375,1.197998046875,3.0,7.8125,6.375,33.859375
2306,0.314697265625,0.009521484375,1.197509765625,-1.1875,8.75,9.125,33.859375
2308,0.314697265625,0.009521484375,1.197509765625,-1.1875,8.75,9.125,33.859375
2310,0.296630859375,-0.00244140625,1.197021484375,-5.875,9.25,11.875,33.859375
2312,0.296630859375,-0.00244140625,1.197021484375,-5.875,9.25,11.875,33.859375
2314,0.279052734375,-0.014892578125,1.1943359375,-10.375,9.375,14.3125,33.859375
2316,0.279052734375,-0.014892578125,1.1943359375,-10.375,9.375,14.3125,33.859375
2318,0.279052734375,-0.014892578125,1.1943359375,-10.375,9.375,14.3125,33.859375
2320,0.263671875,-0.025390625,1.18896484375,-14.875,8.875,16.625,33.859375
2322,0.263671875,-0.025390625,1.18896484375,-14.875,8.875,16.625,33.859375
2324,0.251708984375,-0.031982421875,1.182373046875,-19.375,8.3125,18.3125,33.859375
2326,0.251708984375,-0.031982421875,1.182373046875,-19.375,8.3125,18.3125,33.859375
2328,0.24462890625,-0.038818359375,1.18017578125,-23.5,8.25,19.6875,33.859375
2330,0.24462890625,-0.038818359375,1.18017578125,-23.5,8.25,19.6875,33.859375
2332,0.239501953125,-0.05078125,1.179443359375,-27.3125,8.5625,20.5,33.859375
2334,0.239501953125,-0.05078125,1.179443359375,-27.3125,8.5625,20.5,33.859375
2336,0.239501953125,-0.05078125,1.179443359375,-27.3125,8.5625,20.5,33.859375
2338,0.2373046875,-0.063720703125,1.174072265625,-29.8125,9.0625,21.125,33.859375
2340,0.2373046875,-0.063720703125,1.174072265625,-29.8125,9.0625,21.125,33.859375
2342,0.234619140625,-0.07177734375,1.167236328125,-30.875,9.6875,21.3125,33.859375
2344,0.234619140625,-0.07177734375,1.167236328125,-30.875,9.6875,21.3125,33.859375
2346,0.232177734375,-0.08056640625,1.161376953125,-30.5,10.0625,20.625,33.859375
2348,0.232177734375,-0.08056640625,1.161376953125,-30.5,10.0625,20.625,33.859375
2350,0.23193359375,-0.0859375,1.1572265625,-28.4375,10.6875,18.9375,33.859375
2352,0.23193359375,-0.0859375,1.1572265625,-28.4375,10.6875,18.9375,33.859375
2354,0.23193359375,-0.0859375,1.1572265625,-28.4375,11.8125,16.5625,33.859375
2356,0.239501953125,-0.08447265625,1.156494140625,-25.1875,11.8125,16.5625,33.859375
2358,0.239501953125,-0.08447265625,1.156494140625,-25.1875,11.8125,16.5625,33.859375
2360,0.25537109375,-0.076416015625,1.16259765625,-21.5,13.375,14.1875,33.859375
2362,0.25537109375,-0.076416015625,1.16259765625,-21.5,13.375,14.1875,33.859375
2364,0.2734375,-0.062744140625,1.16943359375,-17.875,15.125,12.0,33.859375
2366,0.2734375,-0.062744140625,1.16943359375,-17.875,15.125,12.0,33.859375
2368,0.29248046875,-0.05224609375,1.174072265625,-14.4375,17.5,10.4375,33.859375
2370,0.29248046875,-0.05224609375,1.174072265625,-14.4375,17.5,10.4375,33.859375
2372,0.311767578125,-0.048828125,1.177001953125,-10.5625,19.8125,9.625,33.859375
2374,0.311767578125,-0.048828125,1.177001953125,-10.5625,19.8125,9.625,33.859375
2376,0.311767578125,-0.048828125,1.177001953125,-10.5625,21.875,9.3125,33.859375
2378,0.32861328125,-0.047119140625,1.18017578125,-6.875,21.875,9.3125,33.859375
2380,0.32861328125,-0.047119140625,1.18017578125,-6.875,21.875,9.3125,33.859375
2382,0.338134765625,-0.047607421875,1.1865234375,-4.0625,23.3125,9.9375,33.859375
2384,0.338134765625,-0.047607421875,1.1865234375,-4.0625,23.3125,9.9375,33.859375
2386,0.341796875,-0.048583984375,1.1904296875,-2.8125,23.9375,11.375,33.859375
2388,0.341796875,-0.048583984375,1.1904296875,-2.8125,23.9375,11.375,33.859375
2390,0.3359375,-0.047607421875,1.1953125,-2.8125,24.375,13.125,33.85546875
2392,0.3359375,-0.047607421875,1.1953125,-2.8125,24.375,13.125,33.85546875
2394,0.3359375,-0.047607421875,1.1953125,-2.8125,24.375,14.875,33.85546875
2395,0.326416015625,-0.0498046875,1.1982421875,-3.8125,24.3125,14.875,33.85546875
2397,0.326416015625,-0.0498046875,1.1982421875,-3.8125,24.3125,14.875,33.85546875
2399,0.31787109375,-0.05615234375,1.19580078125,-6.0625,24.125,16.6875,33.85546875
2401,0.31787109375,-0.05615234375,1.19580078125,-6.0625,24.125,16.6875,33.85546875
2403,0.313720703125,-0.062255859375,1.189697265625,-8.9375,23.625,18.375,33.85546875
2406,0.313720703125,-0.062255859375,1.189697265625,-8.9375,23.625,18.375,33.85546875
2408,0.31201171875,-0.064697265625,1.182373046875,-11.6875,23.0,19.625,33.85546875
2410,0.31201171875,-0.064697265625,1.182373046875,-11.6875,23.0,19.625,33.85546875
2411,0.31201171875,-0.064453125,1.1669921875,-14.875,21.625,21.0,33.85546875
2413,0.305419921875,-0.064453125,1.1669921875,-14.875,21.625,21.0,33.85546875
2415,0.305419921875,-0.064453125,1.1669921875,-14.875,21.625,21.0,33.85546875
2417,0.293212890625,-0.0673828125,1.1494140625,-18.0625,19.6875,22.1875,33.85546875
2419,0.293212890625,-0.0673828125,1.1494140625,-18.0625,19.6875,22.1875,33.85546875
2421,0.285400390625,-0.07666015625,1.1279296875,-20.1875,17.75,23.1875,33.85546875
2423,0.285400390625,-0.07666015625,1.1279296875,-20.1875,17.75,23.1875,33.85546875
2425,0.27734375,-0.081787109375,1.1123046875,-21.25,15.9375,24.375,33.85546875
2427,0.27734375,-0.081787109375,1.1123046875,-21.25,15.9375,24.375,33.85546875
2429,0.27734375,-0.081787109375,1.105224609375,-21.6875,14.5,25.75,33.85546875
2431,0.268798828125,-0.088134765625,1.105224609375,-21.6875,14.5,25.75,33.85546875
2433,0.268798828125,-0.088134765625,1.105224609375,-21.6875,14.5,25.75,33.85546875
2435,0.2568359375,-0.095458984375,1.101318359375,-21.1875,13.3125,26.75,33.85546875
2437,0.2568359375,-0.095458984375,1.101318359375,-21.1875,13.3125,26.75,33.85546875
2439,0.2431640625,-0.102294921875,1.09228515625,-20.0625,12.125,27.25,33.85546875
2442,0.2431640625,-0.102294921875,1.09228515625,-20.0625,12.125,27.25,33.85546875
2443,0.228271484375,-0.10595703125,1.08056640625,-19.0,10.1875,27.8125,33.85546875
2445,0.228271484375,-0.10595703125,1.08056640625,-19.0,10.1875,27.8125,33.85546875
2447,0.212646484375,-0.102294921875,1.08056640625,-17.0625,8.25,28.3125,33.85546875
2450,0.212646484375,-0.102294921875,1.08056640625,-17.0625,8.25,28.3125,33.85546875
2452,0.20361328125,-0.101318359375,1.08349609375,-14.75,7.5625,29.0,33.85546875
2453,0.20361328125,-0.101318359375,1.08349609375,-14.75,7.5625,29.0,33.85546875
2455,0.20361328125,-0.101318359375,1.08349609375,-14.75,7.5625,29.0,33.85546875
2458,0.20068359375,-0.10302734375,1.078857421875,-12.8125,7.6875,29.8125,33.85546875
2460,0.20068359375,-0.10302734375,1.078857421875,-12.8125,7.6875,29.8125,33.85546875
2462,0.19970703125,-0.102783203125,1.0751953125,-11.3125,8.0625,31.0,33.85546875
2463,0.19970703125,-0.102783203125,1.0751953125,-11.3125,8.0625,31.0,33.85546875
2466,0.2021484375,-0.104248046875,1.0732421875,-10.75,8.8125,32.1875,33.85546875
2468,0.2021484375,-0.104248046875,1.0732421875,-10.75,8.8125,32.1875,33.85546875
2470,0.205810546875,-0.10546875,1.072998046875,-10.5625,9.4375,33.1875,33.85546875
2472,0.205810546875,-0.10546875,1.072998046875,-10.5625,9.4375,33.1875,33.85546875
2475,0.208740234375,-0.1025390625,1.066650390625,-11.4375,10.125,34.375,33.85546875
2476,0.208740234375,-0.1025390625,1.066650390625,-11.4375,10.125,34.375,33.85546875
2478,0.2099609375,-0.1005859375,1.06396484375,-13.3125,10.8125,35.5,33.85546875
2480,0.2099609375,-0.1005859375,1.06396484375,-13.3125,10.8125,35.5,33.85546875
2482,0.2099609375,-0.1005859375,1.06396484375,-13.375,12.125,36.25,33.85546875
2484,0.208251953125,-0.103759765625,1.0751953125,-13.375,12.125,36.25,33.85546875
2486,0.208251953125,-0.103759765625,1.0751953125,-13.375,12.125,36.25,33.85546875
2488,0.186767578125,-0.1171875,1.080322265625,-15.25,15.1875,37.25,33.85546875
2490,0.186767578125,-0.1171875,1.080322265625,-15.25,15.1875,37.25,33.85546875
2492,0.169921875,-0.138427734375,1.0859375,-19.8125,19.25,39.375,33.85546875
2494,0.169921875,-0.138427734375,1.0859375,-19.8125,19.25,39.375,33.85546875
2496,0.16552734375,-0.164794921875,1.096923828125,-25.375,23.0625,41.0625,33.85546875
2498,0.16552734375,-0.164794921875,1.096923828125,-25.375,23.0625,41.0625,33.85546875
2500,0.16552734375,-0.164794921875,1.096923828125,-31.5625,25.875,41.3125,33.85546875
2502,0.173095703125,-0.185546875,1.11083984375,-31.5625,25.875,41.3125,33.85546875
2504,0.173095703125,-0.185546875,1.11083984375,-31.5625,25.875,41.3125,33.85546875
2507,0.18017578125,-0.198974609375,1.121826171875,-37.5,27.5625,40.5625,33.85546875
2510,0.187255859375,-0.210693359375,1.13671875,-41.4375,28.8125,39.0625,33.85546875
2512,0.187255859375,-0.210693359375,1.13671875,-41.4375,28.8125,39.0625,33.85546875
2514,0.186279296875,-0.2236328125,1.14794921875,-43.375,30.125,36.625,33.85546875
2516,0.186279296875,-0.2236328125,1.14794921875,-43.375,30.125,36.625,33.85546875
2519,0.18408203125,-0.23388671875,1.149169921875,-43.75,31.5,33.5625,33.85546875
2520,0.18408203125,-0.23388671875,1.149169921875,-43.75,31.5,33.5625,33.85546875
2522,0.187255859375,-0.240966796875,1.140869140625,-43.6875,32.0625,30.5,33.85546875
2524,0.187255859375,-0.240966796875,1.140869140625,-43.6875,32.0625,30.5,33.85546875
2526,0.187255859375,-0.240966796875,1.140869140625,-43.6875,32.0625,30.5,33.85546875
2528,0.19580078125,-0.240234375,1.128173828125,-43.125,31.9375,26.9375,33.85546875
2530,0.19580078125,-0.240234375,1.128173828125,-43.125,31.9375,26.9375,33.85546875
2532,0.20654296875,-0.233642578125,1.13037109375,-41.0,31.75,23.125,33.875
2534,0.20654296875,-0.233642578125,1.13037109375,-41.0,31.75,23.125,33.875
2536,0.219482421875,-0.2236328125,1.1494140625,-35.875,32.625,19.4375,33.875
2538,0.219482421875,-0.2236328125,1.1494140625,-35.875,32.625,19.4375,33.875
2540,0.232421875,-0.2158203125,1.164794921875,-28.3125,34.625,16.0,33.875
2542,0.232421875,-0.2158203125,1.164794921875,-28.3125,34.625,16.0,33.875
2544,0.232421875,-0.2158203125,1.161376953125,-20.625,36.0,12.9375,33.875
2546,0.24560546875,-0.212158203125,1.161376953125,-20.625,36.0,12.9375,33.875
2548,0.24560546875,-0.212158203125,1.161376953125,-20.625,36.0,12.9375,33.875
2550,0.253173828125,-0.208251953125,1.171875,-12.625,36.25,10.75,33.875
2552,0.253173828125,-0.208251953125,1.171875,-12.625,36.25,10.75,33.875
2554,0.26123046875,-0.208740234375,1.195068359375,-3.0,36.875,9.25,33.875
2556,0.26123046875,-0.208740234375,1.195068359375,-3.0,36.875,9.25,33.875
2558,0.26123046875,-0.206298828125,1.20556640625,6.4375,37.0,8.625,33.875
2560,0.272216796875,-0.206298828125,1.20556640625,6.4375,37.0,8.625,33.875
2562,0.272216796875,-0.206298828125,1.20556640625,6.4375,37.0,8.625,33.875
2564,0.2783203125,-0.193115234375,1.20654296875,13.9375,35.75,8.4375,33.875
2566,0.2783203125,-0.193115234375,1.20654296875,13.9375,35.75,8.4375,33.875
2568,0.277099609375,-0.17236328125,1.19970703125,18.3125,33.875,8.6875,33.875
2570,0.277099609375,-0.17236328125,1.19970703125,18.3125,33.875,8.6875,33.875
2572,0.27294921875,-0.157470703125,1.189453125,19.1875,32.0625,9.25,33.875
2574,0.27294921875,-0.157470703125,1.189453125,19.1875,32.0625,9.25,33.875
2576,0.272216796875,-0.147216796875,1.186279296875,16.8125,30.5625,9.75,33.875
2579,0.272216796875,-0.147216796875,1.186279296875,16.8125,30.5625,9.75,33.875
2581,0.271240234375,-0.14111328125,1.184326171875,12.0625,29.0625,10.25,33.875
2583,0.271240234375,-0.14111328125,1.184326171875,12.0625,29.0625,10.25,33.875
2585,0.27197265625,-0.1416015625,1.183349609375,6.4375,27.8125,10.375,33.875
2586,0.27197265625,-0.1416015625,1.183349609375,6.4375,27.8125,10.375,33.875
2589,0.272705078125,-0.143798828125,1.1748046875,1.0625,26.625,10.125,33.875
2591,0.272705078125,-0.143798828125,1.1748046875,1.0625,26.625,10.125,33.875
2593,0.272705078125,-0.14501953125,1.1728515625,-3.375,25.6875,10.0,33.875
2595,0.272216796875,-0.14501953125,1.1728515625,-3.375,25.6875,10.0,33.875
2597,0.272216796875,-0.14501953125,1.1728515625,-3.375,25.6875,10.0,33.875
2599,0.26953125,-0.14990234375,1.1826171875,-6.4375,25.625,9.75,33.875
2601,0.26953125,-0.14990234375,1.1826171875,-6.4375,25.625,9.75,33.875
2603,0.270263671875,-0.152099609375,1.190673828125,-9.4375,26.125,9.25,33.875
2604,0.270263671875,-0.152099609375,1.190673828125,-9.4375,26.125,9.25,33.875
2606,0.270263671875,-0.144775390625,1.205078125,-11.8125,27.375,8.625,33.875
2608,0.2734375,-0.144775390625,1.205078125,-11.8125,27.375,8.625,33.875
2611,0.2734375,-0.144775390625,1.217529296875,-12.5625,28.375,7.9375,33.875
2613,0.278564453125,-0.1357421875,1.217529296875,-12.5625,28.375,7.9375,33.875
2615,0.278564453125,-0.1357421875,1.217529296875,-11.5625,28.9375,7.1875,33.875
2617,0.283447265625,-0.130126953125,1.217529296875,-11.5625,28.9375,7.1875,33.875
2619,0.283447265625,-0.130126953125,1.217529296875,-11.5625,28.9375,7.1875,33.875
2621,0.2861328125,-0.131591796875,1.208984375,-8.5,28.9375,6.9375,33.875
2623,0.2861328125,-0.131591796875,1.208984375,-8.5,28.9375,6.9375,33.875
2625,0.289306640625,-0.1328125,1.19384765625,-4.625,28.125,7.1875,33.875
2627,0.289306640625,-0.1328125,1.19384765625,-4.625,28.125,7.1875,33.875
2629,0.293212890625,-0.121826171875,1.173583984375,-1.75,26.5,8.25,33.875
2630,0.293212890625,-0.121826171875,1.173583984375,-1.75,26.5,8.25,33.875
2632,0.293212890625,-0.121826171875,1.173583984375,-1.75,26.5,8.25,33.875
2634,0.296142578125,-0.106201171875,1.145751953125,-1.375,23.875,10.1875,33.875
2637,0.296142578125,-0.106201171875,1.145751953125,-1.375,23.875,10.1875,33.875
2639,0.297607421875,-0.097900390625,1.12939453125,-2.5625,21.5,12.1875,33.875
2641,0.297607421875,-0.097900390625,1.12939453125,-2.5625,21.5,12.1875,33.875
2642,0.2939453125,-0.10205078125,1.125732421875,-3.5,20.0625,14.5,33.875
2645,0.2939453125,-0.10205078125,1.125732421875,-3.5,20.0625,14.5,33.875
2647,0.2802734375,-0.121826171875,1.119140625,-4.4375,19.4375,17.4375,33.875
2648,0.2802734375,-0.121826171875,1.119140625,-4.4375,19.4375,17.4375,33.875
2650,0.2802734375,-0.121826171875,1.119140625,-4.4375,18.3125,20.375,33.875
2652,0.271484375,-0.153076171875,1.1103515625,-6.5625,18.3125,20.375,33.875
2654,0.271484375,-0.153076171875,1.1103515625,-6.5625,18.3125,20.375,33.875
2656,0.263427734375,-0.184326171875,1.099853515625,-11.125,15.875,22.9375,33.875
2658,0.263427734375,-0.184326171875,1.099853515625,-11.125,15.875,22.9375,33.875
2660,0.2509765625,-0.2158203125,1.10498046875,-17.0,13.0625,24.9375,33.875
2662,0.2509765625,-0.2158203125,1.10498046875,-17.0,13.0625,24.9375,33.875
2664,0.24658203125,-0.2509765625,1.1123046875,-20.9375,11.625,26.6875,33.875
2666,0.24658203125,-0.2509765625,1.1123046875,-20.9375,11.625,26.6875,33.875
2668,0.24658203125,-0.2509765625,1.1123046875,-20.9375,11.625,26.6875,33.875
2670,0.24365234375,-0.287353515625,1.1064453125,-23.375,11.0,27.875,33.875
2672,0.24365234375,-0.287353515625,1.1064453125,-23.375,11.0,27.875,33.875
2674,0.234375,-0.31640625,1.094482421875,-24.8125,10.625,27.875,33.8828125
2676,0.234375,-0.31640625,1.094482421875,-24.8125,10.625,27.875,33.8828125
2678,0.22705078125,-0.3486328125,1.080810546875,-25.1875,10.5,26.75,33.8828125
2680,0.22705078125,-0.3486328125,1.080810546875,-25.1875,10.5,26.75,33.8828125
2682,0.221923828125,-0.376220703125,1.067626953125,-24.75,10.0625,24.5,33.8828125
2685,0.221923828125,-0.376220703125,1.067626953125,-24.75,10.0625,24.5,33.8828125
2687,0.22265625,-0.39501953125,1.060791015625,-24.125,9.875,21.1875,33.8828125
2688,0.22265625,-0.39501953125,1.060791015625,-24.125,9.875,21.1875,33.8828125
2690,0.22265625,-0.39501953125,1.060791015625,-24.125,9.875,16.5625,33.8828125
2692,0.224609375,-0.405029296875,1.058837890625,-23.625,10.0,16.5625,33.8828125
2694,0.224609375,-0.405029296875,1.058837890625,-23.625,10.0,16.5625,33.8828125
2696,0.22998046875,-0.4033203125,1.052001953125,-22.6875,10.125,11.4375,33.8828125
2698,0.22998046875,-0.4033203125,1.052001953125,-22.6875,10.125,11.4375,33.8828125
2700,0.233642578125,-0.389404296875,1.04541015625,-20.875,9.75,6.1875,33.8828125
2702,0.233642578125,-0.389404296875,1.04541015625,-20.875,9.75,6.1875,33.8828125
2704,0.233642578125,-0.389404296875,1.045654296875,-16.875,10.3125,0.6875,33.8828125
2706,0.234619140625,-0.37255859375,1.045654296875,-16.875,10.3125,0.6875,33.8828125
2708,0.234619140625,-0.37255859375,1.045654296875,-0.875,11.6875,-4.0,33.8828125
2710,0.236572265625,-0.35546875,1.038818359375,-11.4375,11.6875,-4.0,33.8828125
2712,0.236572265625,-0.35546875,1.038818359375,-11.4375,11.6875,-4.0,33.8828125
2715,0.236083984375,-0.335693359375,1.028076171875,-5.875,13.5,-7.8125,33.8828125
2717,0.236083984375,-0.335693359375,1.028076171875,-5.875,15.0,-10.75,33.8828125
2719,0.2333984375,-0.314208984375,1.02001953125,-1.1875,15.0,-10.75,33.8828125
2721,0.2333984375,-0.314208984375,1.02001953125,-1.1875,15.0,-10.75,33.8828125
2723,0.23046875,-0.289306640625,1.015869140625,2.25,16.0625,-13.125,33.8828125
2724,0.23046875,-0.289306640625,1.015869140625,2.25,16.0625,-13.125,33.8828125
2726,0.232666015625,-0.2568359375,1.014892578125,4.0625,16.3125,-14.625,33.8828125
2729,0.232666015625,-0.2568359375,1.014892578125,4.0625,16.3125,-14.625,33.8828125
2731,0.23876953125,-0.224609375,1.015380859375,4.125,15.8125,-15.75,33.8828125
2733,0.23876953125,-0.224609375,1.015380859375,4.125,15.8125,-15.75,33.8828125
2735,0.23876953125,-0.224609375,1.015380859375,4.125,15.8125,-16.5,33.8828125
2736,0.240966796875,-0.19677734375,1.017578125,3.1875,14.875,-16.5,33.8828125
2738,0.240966796875,-0.19677734375,1.017578125,3.1875,14.875,-16.5,33.8828125
2740,0.238037109375,-0.1748046875,1.0126953125,1.8125,13.375,-16.8125,33.8828125
2742,0.238037109375,-0.1748046875,1.0126953125,1.8125,13.375,-16.8125,33.8828125
2744,0.23193359375,-0.15625,1.004638671875,0.4375,11.625,-16.5625,33.8828125
2746,0.23193359375,-0.15625,1.004638671875,0.4375,11.625,-16.5625,33.8828125
2748,0.23193359375,-0.15625,1.004638671875,0.4375,9.625,-15.5625,33.8828125
2750,0.2294921875,-0.14501953125,0.988037109375,-0.625,9.625,-15.5625,33.8828125
2752,0.2294921875,-0.14501953125,0.988037109375,-0.625,9.625,-15.5625,33.8828125
2754,0.228759765625,-0.134521484375,0.984130859375,-1.125,8.0625,-14.375,33.8828125
2757,0.228759765625,-0.134521484375,0.984130859375,-1.125,6.375,-12.25,33.8828125
2759,0.22216796875,-0.121337890625,0.98486328125,-1.125,6.375,-12.25,33.8828125
2761,0.22216796875,-0.115234375,0.972900390625,-1.25,4.6875,-9.8125,33.8828125
2763,0.2138671875,-0.115234375,0.972900390625,-1.25,4.6875,-9.8125,33.8828125
2765,0.2138671875,-0.115234375,0.972900390625,-1.25,4.6875,-9.8125,33.8828125
2767,0.209228515625,-0.108154296875,0.955322265625,-1.875,2.625,-7.3125,33.8828125
2769,0.209228515625,-0.108154296875,0.955322265625,-1.875,2.625,-7.3125,33.8828125
2771,0.207763671875,-0.098876953125,0.935546875,-3.625,-0.25,-4.75,33.8828125
2773,0.207763671875,-0.098876953125,0.935546875,-3.625,-0.25,-4.75,33.8828125
2775,0.208984375,-0.093505859375,0.9140625,-6.0,-3.3125,-2.1875,33.8828125
2777,0.208984375,-0.093505859375,0.9140625,-6.0,-3.3125,-2.1875,33.8828125
2779,0.208984375,-0.093505859375,0.9140625,-6.0,-3.3125,-2.1875,33.8828125
2781,0.21435546875,-0.09130859375,0.890380859375,-8.5,-6.6875,-0.25,33.8828125
2783,0.21435546875,-0.09130859375,0.890380859375,-8.5,-6.6875,-0.25,33.8828125
2784,0.22119140625,-0.091552734375,0.871826171875,-10.625,-9.0625,1.3125,33.8828125
2786,0.22119140625,-0.091552734375,0.871826171875,-10.625,-9.0625,1.3125,33.8828125
2788,0.22509765625,-0.095703125,0.862060546875,-11.4375,-10.3125,2.625,33.8828125
2790,0.22509765625,-0.095703125,0.862060546875,-11.4375,-10.3125,2.625,33.8828125
2792,0.22509765625,-0.095703125,0.862060546875,-11.4375,-10.3125,4.0,33.8828125
2794,0.225830078125,-0.101318359375,0.851318359375,-10.625,-10.1875,4.0,33.8828125
2796,0.225830078125,-0.101318359375,0.851318359375,-10.625,-10.1875,4.0,33.8828125
2799,0.22412109375,-0.10546875,0.834716796875,-8.9375,-9.1875,4.9375,33.8828125
2800,0.22412109375,-0.10546875,0.834716796875,-8.9375,-9.1875,4.9375,33.8828125
2802,0.22119140625,-0.10791015625,0.81640625,-6.875,-7.3125,6.1875,33.8828125
2804,0.22119140625,-0.10791015625,0.81640625,-6.875,-7.3125,6.1875,33.8828125
2806,0.22412109375,-0.10693359375,0.798828125,-5.6875,-4.9375,6.625,33.8828125
2808,0.22412109375,-0.10693359375,0.798828125,-5.6875,-4.9375,6.625,33.8828125
2810,0.22412109375,-0.10693359375,0.798828125,-5.6875,-4.9375,6.625,33.8828125
2813,0.235107421875,-0.1064453125,0.78173828125,-6.0,-2.5,6.6875,33.8828125
2815,0.25048828125,-0.109130859375,0.77197265625,-7.8125,0.5625,6.4375,33.84375
2817,0.25048828125,-0.109130859375,0.77197265625,-7.8125,0.5625,6.4375,33.84375
2819,0.25048828125,-0.109130859375,0.77197265625,-7.8125,0.5625,6.4375,33.84375
2821,0.267333984375,-0.11572265625,0.7705078125,-10.0,4.0,5.9375,33.84375
2823,0.267333984375,-0.11572265625,0.7705078125,-10.0,4.0,5.9375,33.84375
2825,0.27685546875,-0.124755859375,0.77587890625,-11.8125,7.625,5.1875,33.84375
2827,0.27685546875,-0.124755859375,0.77587890625,-11.8125,7.625,5.1875,33.84375
2829,0.285888671875,-0.132568359375,0.787353515625,-13.5625,10.9375,4.375,33.84375
2831,0.285888671875,-0.132568359375,0.787353515625,-13.5625,10.9375,4.375,33.84375
2833,0.287109375,-0.134765625,0.800537109375,-14.875,14.1875,3.3125,33.84375
2834,0.287109375,-0.134765625,0.800537109375,-14.875,14.1875,3.3125,33.84375
2836,0.287109375,-0.134765625,0.800537109375,-14.875,30.1875,2.125,33.84375
2839,0.281005859375,-0.134765625,0.810302734375,-15.0625,17.0,2.125,33.84375
2840,0.281005859375,-0.134765625,0.810302734375,-15.0625,17.0,2.125,33.84375
2842,0.275146484375,-0.134033203125,0.81689453125,-14.0,19.1875,0.75,33.84375
2844,0.275146484375,-0.134033203125,0.81689453125,-14.0,19.1875,0.75,33.84375
2852,0.2724609375,-0.133056640625,0.82080078125,-10.8125,21.375,-1.1875,33.84375
2854,0.2724609375,-0.13037109375,0.8212890625,-9.3125,21.875,-1.4375,33.84375
2857,0.271240234375,-0.13037109375,0.8212890625,-9.3125,21.875,-1.4375,33.84375
2859,0.271240234375,-0.13037109375,0.8212890625,-9.3125,21.875,-1.4375,33.84375
2865,0.271484375,-0.12060546875,0.824951171875,-8.25,21.875,-2.0,33.84375
2867,0.271240234375,-0.10693359375,0.8291015625,-7.6875,21.625,-2.25,33.84375
2868,0.2724609375,-0.092529296875,0.828369140625,-7.25,20.375,-2.0,33.84375
2870,0.2724609375,-0.092529296875,0.828369140625,-7.25,20.375,-2.0,33.84375
2872,0.2724609375,-0.092529296875,0.828369140625,-7.25,20.375,-2.0,33.84375
2874,0.272705078125,-0.077392578125,0.825439453125,-6.375,18.9375,-1.625,33.84375
2877,0.272705078125,-0.077392578125,0.825439453125,-6.375,18.9375,-1.625,33.84375
2879,0.272705078125,-0.06494140625,0.82080078125,-4.875,17.0,-0.875,33.84375
2883,0.2724609375,-0.052001953125,0.814208984375,-3.4375,14.8125,0.5,33.84375
2885,0.2724609375,-0.052001953125,0.814208984375,-3.4375,14.8125,0.5,33.84375
2887,0.27197265625,-0.0439453125,0.806396484375,-2.375,12.9375,2.375,33.84375
2889,0.27197265625,-0.0439453125,0.806396484375,-2.375,12.9375,2.375,33.84375
2892,0.265869140625,-0.040771484375,0.7978515625,-2.3125,11.25,4.5,33.84375
2894,0.265869140625,-0.040771484375,0.7978515625,-2.3125,11.25,4.5,33.84375
2899,0.25927734375,-0.0400390625,0.7890625,-3.6875,9.875,6.75,33.84375
2901,0.264404296875,-0.0390625,0.785400390625,-5.875,8.8125,8.6875,33.84375
2903,0.264404296875,-0.0390625,0.785400390625,-8.25,8.3125,10.25,33.84375
2907,0.27197265625,-0.03857421875,0.783203125,-8.25,8.3125,10.25,33.84375
2909,0.274169921875,-0.039794921875,0.7802734375,-10.0,8.1875,11.375,33.84375
2911,0.274169921875,-0.039794921875,0.7802734375,-10.0,8.1875,11.375,33.84375
2913,0.27783203125,-0.043212890625,0.775390625,-10.375,8.0,12.0625,33.84375
2917,0.27783203125,-0.043212890625,0.775390625,-10.375,8.0,12.0625,33.84375
2919,0.279052734375,-0.048583984375,0.769287109375,-9.625,8.25,12.9375,33.84375
2921,0.279052734375,-0.048583984375,0.769287109375,-9.625,8.25,13.5,33.84375
2923,0.279052734375,-0.0537109375,0.766845703125,-8.0,8.75,13.5,33.84375
2926,0.279052734375,-0.0537109375,0.766845703125,-8.0,8.75,13.5,33.84375
2928,0.283203125,-0.05908203125,0.766357421875,-6.375,9.5625,13.6875,33.84375
2930,0.283935546875,-0.066162109375,0.76806640625,-4.625,10.4375,13.875,33.84375
2932,0.283935546875,-0.066162109375,0.76806640625,-4.625,10.4375,13.875,33.84375
2934,0.283935546875,-0.066162109375,0.76806640625,-4.625,10.4375,13.875,33.84375
2936,0.280517578125,-0.076171875,0.77001953125,-2.5,11.4375,13.75,33.84375
2937,0.280517578125,-0.076171875,0.77001953125,-2.5,11.4375,13.75,33.84375
2940,0.2802734375,-0.089111328125,0.770751953125,-0.625,12.6875,13.625,33.84375
2942,0.2802734375,-0.089111328125,0.770751953125,-0.625,12.6875,13.625,33.84375
2944,0.2900390625,-0.098388671875,0.776123046875,0.75,13.8125,13.0625,33.84375
2946,0.2900390625,-0.098388671875,0.776123046875,0.75,13.8125,13.0625,33.84375
2948,0.3037109375,-0.1005859375,0.785888671875,1.75,14.9375,12.5625,33.84375
2950,0.3037109375,-0.1005859375,0.785888671875,1.75,14.9375,12.5625,33.84375
2952,0.3037109375,-0.1005859375,0.785888671875,1.75,14.9375,12.5625,33.84375
2953,0.310546875,-0.101806640625,0.794677734375,3.0,16.5,12.125,33.84375
2955,0.310546875,-0.101806640625,0.794677734375,3.0,16.5,12.125,33.84375
2957,0.3134765625,-0.10302734375,0.799560546875,4.6875,17.9375,11.5,33.890625
2959,0.3134765625,-0.10302734375,0.799560546875,4.6875,17.9375,11.5,33.890625
2961,0.31591796875,-0.1044921875,0.8046875,6.0,18.6875,11.25,33.890625
2963,0.31591796875,-0.1044921875,0.8046875,6.0,18.6875,11.25,33.890625
2965,0.31982421875,-0.107177734375,0.80908203125,6.75,19.1875,11.0625,33.890625
2967,0.31982421875,-0.107177734375,0.80908203125,6.75,19.1875,11.0625,33.890625
2969,0.31982421875,-0.107177734375,0.80908203125,6.75,19.1875,11.0625,33.890625
2971,0.322265625,-0.111572265625,0.812255859375,7.0,19.8125,11.1875,33.890625
2973,0.322265625,-0.111572265625,0.812255859375,7.0,19.8125,11.1875,33.890625
2975,0.3251953125,-0.11474609375,0.811767578125,6.75,20.0,11.5,33.890625
2977,0.3251953125,-0.11474609375,0.811767578125,6.75,20.0,11.5,33.890625
2979,0.33154296875,-0.115478515625,0.812744140625,6.4375,20.4375,11.875,33.890625
2980,0.33154296875,-0.115478515625,0.812744140625,6.4375,20.4375,11.875,33.890625
2982,0.33154296875,-0.115478515625,0.812744140625,6.4375,20.4375,11.875,33.890625
2984,0.3408203125,-0.1220703125,0.811279296875,6.1875,20.625,12.5625,33.890625
2987,0.3408203125,-0.1220703125,0.811279296875,6.1875,20.625,12.5625,33.890625
2989,0.347900390625,-0.13330078125,0.81640625,6.375,20.6875,13.0625,33.890625
2991,0.347900390625,-0.13330078125,0.81640625,6.375,20.6875,13.0625,33.890625
2992,0.361328125,-0.1455078125,0.82958984375,6.25,21.125,13.125,33.890625
2994,0.361328125,-0.1455078125,0.82958984375,6.25,21.125,13.125,33.890625
2996,0.37255859375,-0.16015625,0.851318359375,6.1875,22.4375,13.0625,33.890625
2998,0.37255859375,-0.16015625,0.851318359375,6.1875,22.4375,13.0625,33.890625
3000,0.37255859375,-0.16015625,0.851318359375,6.1875,22.4375,13.0625,33.890625
3002,0.3818359375,-0.17236328125,0.884033203125,5.9375,25.0625,12.5625,33.890625
3004,0.3818359375,-0.17236328125,0.884033203125,5.9375,25.0625,12.5625,33.890625
3006,0.39599609375,-0.187255859375,0.919677734375,4.8125,28.25,11.9375,33.890625
3008,0.39599609375,-0.187255859375,0.919677734375,4.8125,28.25,11.9375,33.890625
3010,0.413330078125,-0.208984375,0.9560546875,3.125,31.1875,11.0,33.890625
3012,0.413330078125,-0.208984375,0.9560546875,3.125,31.1875,11.0,33.890625
3014,0.430419921875,-0.23828125,0.995361328125,1.0,34.5,9.5625,33.890625
3016,0.430419921875,-0.23828125,0.995361328125,1.0,34.5,9.5625,33.890625
3018,0.430419921875,-0.23828125,0.995361328125,1.0,34.5,9.5625,33.890625
3020,0.4501953125,-0.266845703125,1.0390625,-1.375,38.125,7.5625,33.890625
3022,0.4501953125,-0.266845703125,1.0390625,-1.375,38.125,7.5625,33.890625
3024,0.47509765625,-0.289794921875,1.091064453125,-3.4375,41.4375,4.6875,33.890625
3026,0.47509765625,-0.289794921875,1.091064453125,-3.4375,41.4375,4.6875,33.890625
3028,0.502197265625,-0.298828125,1.14599609375,-4.9375,44.125,0.625,33.890625
3029,0.502197265625,-0.298828125,1.14599609375,-4.9375,44.125,0.625,33.890625
3031,0.502197265625,-0.298828125,1.14599609375,-4.9375,44.125,0.625,33.890625
3034,0.535888671875,-0.311279296875,1.196533203125,-5.375,46.875,-4.1875,33.890625
3036,0.535888671875,-0.311279296875,1.196533203125,-5.375,46.875,-4.1875,33.890625
3038,0.587890625,-0.32373046875,1.2529296875,-3.4375,50.125,-10.125,33.890625
3040,0.587890625,-0.32373046875,1.2529296875,-3.4375,50.125,-10.125,33.890625
3041,0.641357421875,-0.326904296875,1.311279296875,0.6875,52.5625,-16.25,33.890625
3043,0.641357421875,-0.326904296875,1.311279296875,0.6875,52.5625,-16.25,33.890625
3045,0.678955078125,-0.3232421875,1.36572265625,5.5,53.75,-21.8125,33.890625
3047,0.678955078125,-0.3232421875,1.36572265625,5.5,53.75,-21.8125,33.890625
3049,0.678955078125,-0.3232421875,1.42822265625,10.625,53.9375,-27.375,33.890625
