time,acc_x,acc_y,acc_z,gyro_x,gyro_y,gyro_z
407,-0.742431640625,0.068115234375,0.736572265625,1,5.375,-1.8125
409,-0.742431640625,0.068115234375,0.736572265625,-0.3125,5.1875,-0.9375
411,-0.735107421875,0.068603515625,0.72802734375,-0.3125,5.1875,-0.9375
413,-0.735107421875,0.068603515625,0.72802734375,-0.3125,5.1875,-0.9375
415,-0.72802734375,0.06787109375,0.716796875,0.4375,4.5,0.0625
418,-0.72802734375,0.06787109375,0.716796875,0.4375,4.5,0.0625
420,-0.72119140625,0.06591796875,0.70849609375,2.5,3.4375,1.625
422,-0.72119140625,0.06591796875,0.70849609375,2.5,3.4375,1.625
424,-0.7158203125,0.066650390625,0.69921875,5.0625,2.0625,3.5
425,-0.7158203125,0.066650390625,0.69921875,5.0625,2.0625,3.5
427,-0.7158203125,0.071044921875,0.688232421875,7.125,0.5,5.8125
429,-0.710693359375,0.071044921875,0.688232421875,7.125,0.5,5.8125
431,-0.710693359375,0.071044921875,0.688232421875,7.125,0.5,5.8125
433,-0.701904296875,0.0771484375,0.676025390625,8.25,-1.1875,8
435,-0.701904296875,0.0771484375,0.676025390625,8.25,-1.1875,8
437,-0.693115234375,0.083251953125,0.66162109375,8.5,-2.75,9.9375
439,-0.693115234375,0.083251953125,0.66162109375,8.5,-2.75,9.9375
441,-0.688720703125,0.084228515625,0.646240234375,7.625,-4.5,12.625
443,-0.688720703125,0.084228515625,0.646240234375,7.625,-4.5,12.625
445,-0.685546875,0.080078125,0.638427734375,6.3125,-5.8125,15.5
447,-0.685546875,0.080078125,0.638427734375,6.3125,-5.8125,15.5
449,-0.685546875,0.080078125,0.638427734375,6.3125,-5.8125,15.5
451,-0.681640625,0.072509765625,0.626220703125,4.5625,-6.25,17.5
453,-0.681640625,0.072509765625,0.626220703125,4.5625,-6.25,17.5
455,-0.680908203125,0.064208984375,0.604736328125,2.25,-5.9375,19
457,-0.680908203125,0.064208984375,0.604736328125,2.25,-5.9375,19
459,-0.683349609375,0.053955078125,0.5849609375,-0.8125,-5.375,20.6875
461,-0.683349609375,0.053955078125,0.5849609375,-0.8125,-5.375,20.6875
463,-0.683349609375,0.053955078125,0.5849609375,-4.5,-4.4375,22
466,-0.6904296875,0.0400390625,0.566650390625,-4.5,-4.4375,22
467,-0.697509765625,0.023681640625,0.548828125,-7.9375,-3.1875,23.25
469,-0.697509765625,0.023681640625,0.548828125,-7.9375,-3.1875,23.25
471,-0.697509765625,0.023681640625,0.548828125,-7.9375,-3.1875,23.25
473,-0.699462890625,0.006103515625,0.536376953125,-11,-2.5,23.875
475,-0.699462890625,0.006103515625,0.536376953125,-11,-2.5,23.875
477,-0.698486328125,-0.009765625,0.53173828125,-13.3125,-1.5,23.9375
479,-0.698486328125,-0.009765625,0.53173828125,-13.3125,-1.5,23.9375
481,-0.69189453125,-0.020751953125,0.52587890625,-14.3125,0.125,23.25
483,-0.69189453125,-0.020751953125,0.52587890625,-14.3125,0.125,23.25
485,-0.69189453125,-0.020751953125,0.5234375,-14,1.75,21.9375
487,-0.693359375,-0.031494140625,0.5234375,-14,1.75,21.9375
489,-0.693359375,-0.031494140625,0.5234375,-12.9375,3.0625,20.625
491,-0.704833984375,-0.041015625,0.52587890625,-12.9375,3.0625,20.625
493,-0.704833984375,-0.041015625,0.52587890625,-12.9375,3.0625,20.625
495,-0.70849609375,-0.04248046875,0.529296875,-10.4375,4,19.4375
497,-0.70849609375,-0.04248046875,0.529296875,-10.4375,4,19.4375
499,-0.702392578125,-0.045166015625,0.532958984375,-6.5625,4.8125,18.125
501,-0.702392578125,-0.045166015625,0.532958984375,-6.5625,4.8125,18.125
503,-0.688720703125,-0.0419921875,0.541748046875,-2,5.1875,16.8125
505,-0.688720703125,-0.0419921875,0.541748046875,-2,5.1875,16.8125
506,-0.688720703125,-0.0419921875,0.541748046875,-2,5.1875,16.8125
508,-0.68359375,-0.0322265625,0.55322265625,3.125,5.0625,16
510,-0.68359375,-0.0322265625,0.55322265625,3.125,5.0625,16
513,-0.679443359375,-0.016357421875,0.5625,7.6875,4.1875,15.75
515,-0.679443359375,-0.016357421875,0.5625,7.6875,4.1875,15.75
517,-0.657470703125,-0.00390625,0.58203125,10,4.25,16.375
518,-0.657470703125,-0.00390625,0.58203125,10,4.25,16.375
520,-0.635986328125,0.0068359375,0.598876953125,9.875,5.25,17
522,-0.635986328125,0.0068359375,0.598876953125,9.875,5.25,17
524,-0.635986328125,0.0068359375,0.598876953125,9.875,5.25,17
526,-0.6220703125,0.016845703125,0.609619140625,8.8125,6.4375,17.5
528,-0.6220703125,0.016845703125,0.609619140625,8.8125,6.4375,17.5
530,-0.611083984375,0.024658203125,0.619384765625,7.4375,7.25,18.1875
532,-0.611083984375,0.024658203125,0.619384765625,7.4375,7.25,18.1875
534,-0.60009765625,0.03125,0.6279296875,5.6875,7.875,19
536,-0.60009765625,0.03125,0.6279296875,5.6875,7.875,19
538,-0.5830078125,0.03759765625,0.63525390625,4.1875,8.5,19.75
540,-0.5830078125,0.03759765625,0.63525390625,4.1875,8.5,19.75
542,-0.5830078125,0.03759765625,0.63525390625,4.1875,8.5,19.75
544,-0.562255859375,0.044189453125,0.6396484375,2.4375,9.625,20.25
546,-0.562255859375,0.044189453125,0.6396484375,2.4375,9.625,20.25
548,-0.538330078125,0.048583984375,0.64013671875,0.5625,10.625,20.625
550,-0.538330078125,0.048583984375,0.64013671875,0.5625,10.625,20.625
552,-0.529541015625,0.050537109375,0.641357421875,-1.3125,12.3125,21.125
554,-0.529541015625,0.050537109375,0.641357421875,-1.3125,12.3125,21.125
556,-0.5234375,0.051025390625,0.638671875,-3.5,13.9375,21.875
558,-0.5234375,0.051025390625,0.638671875,-3.5,13.9375,21.875
560,-0.510498046875,0.04931640625,0.639404296875,-6,15.4375,22.3125
562,-0.510498046875,0.04931640625,0.639404296875,-6,15.4375,22.3125
564,-0.510498046875,0.04931640625,0.639404296875,-6,15.4375,22.3125
566,-0.496337890625,0.0498046875,0.644775390625,-9.375,17.125,22.6875
568,-0.496337890625,0.0498046875,0.644775390625,-9.375,17.125,22.6875
570,-0.48046875,0.05615234375,0.653564453125,-13.125,19,22.8125
572,-0.48046875,0.05615234375,0.653564453125,-13.125,19,22.8125
574,-0.458984375,0.06201171875,0.660888671875,-16.75,21.375,22.25
575,-0.458984375,0.06201171875,0.660888671875,-16.75,21.375,22.25
577,-0.458984375,0.06201171875,0.660888671875,-16.75,21.375,22.25
579,-0.43798828125,0.062744140625,0.669189453125,-20.25,23.9375,21.625
581,-0.43798828125,0.062744140625,0.669189453125,-20.25,23.9375,21.625
584,-0.419189453125,0.062744140625,0.681396484375,-23.5,26.375,20.9375
586,-0.419189453125,0.062744140625,0.681396484375,-23.5,26.375,20.9375
588,-0.405517578125,0.05517578125,0.689208984375,-25.5625,29.0625,20.25
590,-0.405517578125,0.05517578125,0.689208984375,-25.5625,29.0625,20.25
591,-0.395263671875,0.04736328125,0.69677734375,-25.25,31.1875,19.75
593,-0.395263671875,0.04736328125,0.69677734375,-25.25,31.1875,19.75
595,-0.395263671875,0.04736328125,0.69677734375,-25.25,32.9375,18.9375
597,-0.388671875,0.04296875,0.708984375,-22.4375,32.9375,18.9375
599,-0.388671875,0.04296875,0.708984375,-22.4375,32.9375,18.9375
601,-0.37890625,0.0419921875,0.73095703125,-17.8125,34.0625,18
603,-0.37890625,0.0419921875,0.73095703125,-17.8125,34.0625,18
605,-0.359619140625,0.0419921875,0.758544921875,-12.125,35.625,16.9375
608,-0.359619140625,0.0419921875,0.758544921875,-12.125,35.625,16.9375
609,-0.330322265625,0.045166015625,0.787353515625,-6.5,37,15.6875
611,-0.330322265625,0.045166015625,0.787353515625,-6.5,37,15.6875
613,-0.293212890625,0.054443359375,0.819091796875,-0.75,38.5,14.5
615,-0.293212890625,0.054443359375,0.819091796875,-0.75,38.5,14.5
617,-0.293212890625,0.054443359375,0.819091796875,-0.75,38.5,14.5
619,-0.254638671875,0.066162109375,0.84765625,4.0625,40.5,13.1875
621,-0.254638671875,0.066162109375,0.84765625,4.0625,40.5,13.1875
623,-0.21728515625,0.083740234375,0.87255859375,6.0625,43.625,12.25
625,-0.21728515625,0.083740234375,0.87255859375,6.0625,43.625,12.25
627,-0.18212890625,0.098876953125,0.900634765625,5.875,47.8125,11.4375
629,-0.18212890625,0.098876953125,0.900634765625,5.875,47.8125,11.4375
631,-0.149169921875,0.111083984375,0.934326171875,5.0625,52.6875,11.1875
633,-0.149169921875,0.111083984375,0.934326171875,5.0625,52.6875,11.1875
635,-0.149169921875,0.111083984375,0.934326171875,5.0625,52.6875,11.1875
637,-0.1396484375,0.1240234375,0.981201171875,4.625,58.5625,10.75
639,-0.1396484375,0.1240234375,0.981201171875,4.625,58.5625,10.75
641,-0.128173828125,0.1396484375,1.02783203125,5.0625,65.25,10
643,-0.128173828125,0.1396484375,1.02783203125,5.0625,65.25,10
645,-0.114990234375,0.14892578125,1.073486328125,5.75,71.5625,9.125
647,-0.114990234375,0.14892578125,1.073486328125,5.75,71.5625,9.125
649,-0.114990234375,0.14892578125,1.1259765625,6.5625,77.25,8.4375
651,-0.117919921875,0.142822265625,1.1259765625,6.5625,77.25,8.4375
653,-0.117919921875,0.142822265625,1.1259765625,6.5625,77.25,8.4375
655,-0.136474609375,0.127685546875,1.182861328125,9.0625,82.0625,7.9375
657,-0.136474609375,0.127685546875,1.182861328125,9.0625,82.0625,7.9375
659,-0.162109375,0.11767578125,1.25927734375,14.875,84.9375,6.5625
661,-0.162109375,0.11767578125,1.25927734375,14.875,84.9375,6.5625
663,-0.18212890625,0.129638671875,1.317626953125,25.75,83.8125,3.75
665,-0.18212890625,0.129638671875,1.317626953125,25.75,83.8125,3.75
667,-0.18212890625,0.172607421875,1.356689453125,28.875,81.5,1.0625
669,-0.18212890625,0.172607421875,1.356689453125,28.875,81.5,1.0625
671,-0.18212890625,0.172607421875,1.356689453125,28.875,81.5,1.0625
672,-0.175537109375,0.2099609375,1.418212890625,28.75,81.75,0.25
675,-0.175537109375,0.2099609375,1.418212890625,28.75,81.75,0.25
677,-0.171630859375,0.237548828125,1.46875,25.125,84.75,1
679,-0.171630859375,0.237548828125,1.46875,25.125,84.75,1
681,-0.173095703125,0.248291015625,1.527099609375,21.9375,88.1875,2.4375
683,-0.173095703125,0.248291015625,1.527099609375,21.9375,88.1875,2.4375
685,-0.17333984375,0.250244140625,1.577392578125,20.375,89.875,3.5625
687,-0.17333984375,0.250244140625,1.577392578125,20.375,89.875,3.5625
689,-0.1748046875,0.251708984375,1.62109375,18.375,89.9375,4.625
691,-0.1748046875,0.251708984375,1.62109375,18.375,89.9375,4.625
693,-0.1748046875,0.251708984375,1.62109375,16.3125,89.5625,5.8125
695,-0.189697265625,0.259765625,1.675048828125,16.3125,89.5625,5.8125
697,-0.189697265625,0.259765625,1.675048828125,16.3125,89.5625,5.8125
699,-0.21044921875,0.278564453125,1.749267578125,14.6875,89,6.4375
701,-0.21044921875,0.278564453125,1.749267578125,14.6875,89,6.4375
703,-0.23291015625,0.294677734375,1.81396484375,11.1875,88.9375,7.0625
705,-0.23291015625,0.294677734375,1.81396484375,11.1875,88.9375,7.0625
707,-0.261474609375,0.296875,1.860107421875,6.5625,88.375,8.25
709,-0.261474609375,0.296875,1.860107421875,6.5625,88.375,8.25
711,-0.30615234375,0.278564453125,1.89990234375,2.4375,86.3125,9.75
713,-0.30615234375,0.278564453125,1.89990234375,2.4375,86.3125,9.75
715,-0.30615234375,0.278564453125,1.89990234375,2.4375,86.3125,9.75
717,-0.371337890625,0.248046875,1.948974609375,0.75,83.5,11.125
719,-0.371337890625,0.248046875,1.948974609375,0.75,83.5,11.125
720,-0.430908203125,0.209228515625,2.0029296875,1.4375,80.5,12.375
722,-0.430908203125,0.209228515625,2.0029296875,1.4375,80.5,12.375
724,-0.482666015625,0.163818359375,2.0615234375,4.625,76.625,13.625
727,-0.482666015625,0.163818359375,2.0615234375,4.625,76.625,13.625
729,-0.537353515625,0.1142578125,2.12353515625,11.375,72.375,14.25
731,-0.537353515625,0.1142578125,2.12353515625,11.375,72.375,14.25
733,-0.537353515625,0.1142578125,2.12353515625,11.375,67.8125,13.875
735,-0.59228515625,0.079345703125,2.18017578125,20.875,67.8125,13.875
737,-0.59228515625,0.079345703125,2.18017578125,20.875,67.8125,13.875
739,-0.6611328125,0.077880859375,2.245849609375,30.375,63.25,13.0625
741,-0.6611328125,0.077880859375,2.245849609375,30.375,63.25,13.0625
742,-0.749267578125,0.10791015625,2.31640625,37.5,58.625,12.0625
744,-0.749267578125,0.10791015625,2.31640625,37.5,58.625,12.0625
746,-0.841796875,0.157958984375,2.3955078125,40.625,54,10.9375
749,-0.841796875,0.157958984375,2.3955078125,40.625,54,10.9375
751,-0.92919921875,0.20458984375,2.462158203125,38.8125,49.1875,9.8125
753,-0.92919921875,0.20458984375,2.462158203125,38.8125,49.1875,9.8125
755,-0.92919921875,0.20458984375,2.462158203125,38.8125,49.1875,9.8125
757,-1.0068359375,0.23583984375,2.46923828125,32.8125,44.1875,8.75
759,-1.0068359375,0.23583984375,2.46923828125,32.8125,44.1875,8.75
761,-1.076904296875,0.254638671875,2.499267578125,23.4375,39.625,7.5
763,-1.076904296875,0.254638671875,2.499267578125,23.4375,39.625,7.5
765,-1.152587890625,0.2822265625,2.5849609375,11.4375,34.5,5.375
766,-1.152587890625,0.2822265625,2.5849609375,11.4375,34.5,5.375
768,-1.235107421875,0.325927734375,2.675048828125,-2.9375,28.8125,3
770,-1.235107421875,0.325927734375,2.675048828125,-2.9375,28.8125,3
773,-1.235107421875,0.325927734375,2.675048828125,-18.875,20.6875,0.75
775,-1.330322265625,0.364013671875,2.74951171875,-18.875,20.6875,0.75
777,-1.330322265625,0.364013671875,2.74951171875,-18.875,20.6875,0.75
778,-1.440673828125,0.390869140625,2.80517578125,-34.375,7.6875,-0.125
781,-1.440673828125,0.390869140625,2.80517578125,-34.375,7.6875,-0.125
782,-1.546630859375,0.39697265625,2.8349609375,-46.4375,-10.625,0.4375
784,-1.546630859375,0.39697265625,2.8349609375,-46.4375,-10.625,0.4375
786,-1.64501953125,0.38232421875,2.84912109375,-54.3125,-33.375,1.5625
788,-1.64501953125,0.38232421875,2.84912109375,-54.3125,-33.375,1.5625
790,-1.64501953125,0.38232421875,2.84912109375,-54.3125,-33.375,1.5625
792,-1.748046875,0.377685546875,2.84130859375,-59.125,-60.0625,6.1875
794,-1.748046875,0.377685546875,2.84130859375,-59.125,-60.0625,6.1875
796,-1.833251953125,0.374755859375,2.793212890625,-61.5,-88.6875,12.875
798,-1.833251953125,0.374755859375,2.793212890625,-61.5,-88.6875,12.875
800,-1.873046875,0.36572265625,2.6796875,-63.3125,-110.0625,18.6875
802,-1.873046875,0.36572265625,2.6796875,-63.3125,-110.0625,18.6875
804,-1.880859375,0.312255859375,2.5830078125,-67.125,-129.0625,21.625
806,-1.880859375,0.312255859375,2.5830078125,-67.125,-129.0625,21.625
808,-1.880859375,0.312255859375,2.5830078125,-67.125,-129.0625,21.625
810,-1.90673828125,0.24072265625,2.48681640625,-69.75,-148.6875,25.9375
812,-1.90673828125,0.24072265625,2.48681640625,-69.75,-148.6875,25.9375
814,-1.952392578125,0.170166015625,2.43896484375,-70.75,-165.4375,31.8125
816,-1.952392578125,0.170166015625,2.43896484375,-70.75,-165.4375,31.8125
818,-1.9912109375,0.1162109375,2.3427734375,-70.875,-180.125,36.9375
820,-1.9912109375,0.1162109375,2.3427734375,-70.875,-180.125,36.9375
822,-2.01806640625,0.077880859375,2.231689453125,-71,-194.1875,40.625
823,-2.01806640625,0.077880859375,2.231689453125,-71,-194.1875,40.625
825,-2.01806640625,0.077880859375,2.231689453125,-71,-194.1875,40.625
827,-2.06787109375,0.037841796875,2.12841796875,-72.125,-205.4375,42.8125
829,-2.06787109375,0.037841796875,2.12841796875,-72.125,-205.4375,42.8125
831,-2.12255859375,-0.004638671875,2.043701171875,-74.1875,-213.75,41.0625
833,-2.12255859375,-0.004638671875,2.043701171875,-74.1875,-213.75,41.0625
835,-2.152099609375,-0.034912109375,1.98046875,-75.6875,-221,35.625
838,-2.152099609375,-0.034912109375,1.98046875,-75.6875,-221,35.625
840,-2.180908203125,-0.057373046875,1.93212890625,-76.125,-228.4375,28.125
841,-2.180908203125,-0.057373046875,1.93212890625,-76.125,-228.4375,28.125
843,-2.180908203125,-0.057373046875,1.93212890625,-76.125,-228.4375,19.75
845,-2.221923828125,-0.060302734375,1.89501953125,-75.4375,-235.875,19.75
847,-2.221923828125,-0.060302734375,1.89501953125,-75.4375,-235.875,19.75
849,-2.25830078125,-0.050537109375,1.856201171875,-73.75,-243.1875,11.75
851,-2.25830078125,-0.050537109375,1.856201171875,-73.75,-243.1875,11.75
853,-2.286376953125,-0.037353515625,1.809814453125,-71.4375,-250.4375,4.4375
855,-2.286376953125,-0.037353515625,1.809814453125,-71.4375,-250.4375,4.4375
857,-2.30029296875,-0.0224609375,1.75048828125,-69.5,-258.75,-1.6875
859,-2.30029296875,-0.0224609375,1.75048828125,-69.5,-258.75,-1.6875
861,-2.283447265625,-0.03662109375,1.628173828125,-72.5,-267,-8.5
863,-2.283447265625,-0.03662109375,1.628173828125,-72.5,-267,-8.5
865,-2.283447265625,-0.03662109375,1.628173828125,-72.5,-267,-8.5
867,-2.25927734375,-0.05029296875,1.4404296875,-91.1875,-271.875,-17.875
869,-2.25927734375,-0.05029296875,1.4404296875,-91.1875,-271.875,-17.875
871,-2.258056640625,0.042236328125,1.4287109375,-105.875,-274.5625,-26.1875
874,-2.258056640625,0.042236328125,1.4287109375,-105.875,-274.5625,-26.1875
875,-2.2841796875,0.067138671875,1.426513671875,-104.0625,-278.625,-30.1875
877,-2.2841796875,0.067138671875,1.426513671875,-104.0625,-278.625,-30.1875
879,-2.290771484375,-0.03369140625,1.2607421875,-109.75,-294.25,-26.5625
882,-2.290771484375,-0.03369140625,1.2607421875,-109.75,-294.25,-26.5625
884,-2.099365234375,-0.05517578125,1.2890625,-107,-314.375,-22.5625
886,-2.099365234375,-0.05517578125,1.2890625,-107,-314.375,-22.5625
887,-2.099365234375,-0.05517578125,1.2890625,-107,-314.375,-22.5625
889,-2.000244140625,0.048828125,1.290283203125,-93.25,-321.625,-29.5625
891,-2.000244140625,0.048828125,1.290283203125,-93.25,-321.625,-29.5625
893,-1.956298828125,0.102294921875,1.17529296875,-90.1875,-322.625,-39.625
895,-1.956298828125,0.102294921875,1.17529296875,-90.1875,-322.625,-39.625
897,-1.847412109375,0.0947265625,1.0556640625,-92.8125,-324.125,-45.8125
902,-1.86376953125,0.1064453125,0.952880859375,-96.5625,-327.6875,-45.3125
904,-1.86376953125,0.1064453125,0.952880859375,-96.5625,-327.6875,-45.3125
907,-1.86474609375,0.127685546875,0.89111328125,-97.4375,-330.875,-40.125
909,-1.86474609375,0.127685546875,0.89111328125,-97.4375,-330.875,-40.125
911,-1.822265625,0.135986328125,0.8291015625,-94,-333.0625,-35
913,-1.822265625,0.135986328125,0.8291015625,-94,-333.0625,-35
915,-1.769775390625,0.139404296875,0.767822265625,-87.5625,-334.5,-32.4375
917,-1.769775390625,0.139404296875,0.767822265625,-87.5625,-334.5,-32.4375
919,-1.70361328125,0.1552734375,0.732666015625,-79.875,-333.1875,-31.5
921,-1.70361328125,0.1552734375,0.732666015625,-79.875,-333.1875,-31.5
923,-1.70361328125,0.1552734375,0.732666015625,-79.875,-333.1875,-31.5
925,-1.644287109375,0.16650390625,0.697998046875,-73.125,-328.75,-30.625
927,-1.644287109375,0.16650390625,0.697998046875,-73.125,-328.75,-30.625
930,-1.593505859375,0.1630859375,0.656494140625,-68.3125,-322.8125,-28.75
931,-1.593505859375,0.1630859375,0.656494140625,-68.3125,-322.8125,-28.75
933,-1.547119140625,0.153564453125,0.609619140625,-64.625,-316.6875,-26.0625
935,-1.547119140625,0.153564453125,0.609619140625,-64.625,-316.6875,-26.0625
937,-1.51953125,0.155517578125,0.56494140625,-62.8125,-310.375,-23.625
939,-1.51953125,0.155517578125,0.56494140625,-62.8125,-310.375,-23.625
941,-1.480712890625,0.1591796875,0.5224609375,-63.75,-304.0625,-22.1875
943,-1.480712890625,0.1591796875,0.5224609375,-63.75,-304.0625,-22.1875
945,-1.480712890625,0.1591796875,0.5224609375,-63.75,-304.0625,-22.1875
947,-1.455078125,0.15771484375,0.47802734375,-67,-298.375,-22.1875
949,-1.455078125,0.15771484375,0.47802734375,-67,-298.375,-22.1875
952,-1.4111328125,0.141845703125,0.436279296875,-70.25,-294.4375,-24.3125
954,-1.4111328125,0.141845703125,0.436279296875,-70.25,-294.4375,-24.3125
955,-1.353515625,0.1201171875,0.4091796875,-74.5625,-291.625,-27.5625
958,-1.353515625,0.1201171875,0.4091796875,-74.5625,-291.625,-27.5625
960,-1.29541015625,0.10400390625,0.382080078125,-79.5625,-291.1875,-31.375
962,-1.29541015625,0.10400390625,0.382080078125,-79.5625,-291.1875,-31.375
963,-1.217529296875,0.10205078125,0.350341796875,-83.5,-292.875,-33.875
965,-1.217529296875,0.10205078125,0.350341796875,-83.5,-292.875,-33.875
967,-1.217529296875,0.10205078125,0.350341796875,-83.5,-292.875,-33.875
969,-1.148681640625,0.109619140625,0.308349609375,-86.5,-295.25,-34.9375
971,-1.148681640625,0.109619140625,0.308349609375,-86.5,-295.25,-34.9375
974,-1.089599609375,0.122802734375,0.268798828125,-88.125,-297.1875,-34.8125
976,-1.089599609375,0.122802734375,0.268798828125,-88.125,-297.1875,-34.8125
978,-1.029296875,0.144775390625,0.232666015625,-88.25,-298.0625,-34.25
979,-1.029296875,0.144775390625,0.232666015625,-88.25,-298.0625,-34.25
981,-0.9658203125,0.17041015625,0.2001953125,-86.5,-297.9375,-33.625
983,-0.9658203125,0.17041015625,0.2001953125,-86.5,-297.9375,-33.625
985,-0.9658203125,0.17041015625,0.2001953125,-86.5,-296.0625,-32.6875
987,-0.8896484375,0.18798828125,0.172119140625,-83.4375,-296.0625,-32.6875
989,-0.8896484375,0.18798828125,0.172119140625,-83.4375,-296.0625,-32.6875
991,-0.81298828125,0.1923828125,0.14599609375,-79.5,-292,-31.1875
993,-0.81298828125,0.1923828125,0.14599609375,-79.5,-292,-31.1875
995,-0.734130859375,0.18896484375,0.1162109375,-75.125,-286.25,-28.25
997,-0.734130859375,0.18896484375,0.1162109375,-75.125,-286.25,-28.25
999,-0.647705078125,0.174560546875,0.096923828125,-69.6875,-278.5625,-25.0625
1001,-0.647705078125,0.174560546875,0.096923828125,-69.6875,-278.5625,-25.0625
1003,-0.578857421875,0.148681640625,0.0830078125,-64.5625,-268.625,-21.125
1005,-0.578857421875,0.148681640625,0.0830078125,-64.5625,-268.625,-21.125
1007,-0.578857421875,0.148681640625,0.0830078125,-64.5625,-268.625,-21.125
1009,-0.526611328125,0.119873046875,0.07421875,-59.6875,-256.4375,-17.1875
1011,-0.526611328125,0.119873046875,0.07421875,-59.6875,-256.4375,-17.1875
1013,-0.4990234375,0.08544921875,0.062744140625,-55.0625,-243.5,-14
1015,-0.4990234375,0.08544921875,0.062744140625,-55.0625,-243.5,-14
1018,-0.4775390625,0.050048828125,0.0546875,-50.375,-231.625,-12.25
1020,-0.4775390625,0.050048828125,0.0546875,-50.375,-231.625,-12.25
1022,-0.476318359375,0.007080078125,0.054443359375,-46.875,-221.5,-12.25
1024,-0.476318359375,0.007080078125,0.054443359375,-46.875,-221.5,-12.25
1026,-0.498291015625,-0.0400390625,0.049072265625,-43.625,-213.75,-13.8125
1028,-0.498291015625,-0.0400390625,0.049072265625,-43.625,-213.75,-13.8125
1030,-0.560791015625,-0.084716796875,0.048583984375,-38.75,-208.75,-16.8125
1032,-0.5224609375,-0.084716796875,0.048583984375,-38.75,-208.75,-16.8125
1033,-0.5224609375,-0.084716796875,0.048583984375,-38.75,-208.75,-16.8125
1035,-0.5302734375,-0.10791015625,0.05517578125,-33.0625,-206.125,-21
1037,-0.5302734375,-0.10791015625,0.05517578125,-33.0625,-206.125,-21
1040,-0.522216796875,-0.110107421875,0.059814453125,-27.375,-204.75,-26.75
1042,-0.522216796875,-0.110107421875,0.059814453125,-27.375,-204.75,-26.75
1044,-0.49951171875,-0.096923828125,0.061767578125,-21.875,-203.9375,-34.125
1045,-0.49951171875,-0.096923828125,0.061767578125,-21.875,-203.9375,-34.125
1047,-0.46826171875,-0.069580078125,0.060791015625,-17.3125,-202.625,-42.4375
1050,-0.46826171875,-0.069580078125,0.060791015625,-17.3125,-202.625,-42.4375
1051,-0.46826171875,-0.069580078125,0.060791015625,-17.3125,-202.625,-42.4375
1053,-0.43212890625,-0.035888671875,0.05224609375,-13.1875,-199.1875,-50.9375
1055,-0.43212890625,-0.035888671875,0.05224609375,-13.1875,-199.1875,-50.9375
1057,-0.412109375,0.01025390625,0.03662109375,-8.9375,-192.1875,-57.3125
1059,-0.412109375,0.01025390625,0.03662109375,-8.9375,-192.1875,-57.3125
1062,-0.374755859375,0.07861328125,0.0146484375,-4.5,-181.875,-60.9375
1064,-0.374755859375,0.07861328125,0.0146484375,-4.5,-181.875,-60.9375
1066,-0.3076171875,0.141845703125,-0.009033203125,0.5,-168.6875,-62.5
1068,-0.3076171875,0.141845703125,-0.009033203125,0.5,-168.6875,-62.5
1070,-0.232177734375,0.19482421875,-0.034423828125,4.8125,-154.5625,-61.5625
1072,-0.232177734375,0.19482421875,-0.034423828125,4.8125,-154.5625,-61.5625
1074,-0.1650390625,0.23193359375,-0.056396484375,8.25,-140.75,-58.4375
1076,-0.1650390625,0.23193359375,-0.056396484375,8.25,-140.75,-58.4375
1078,-0.1650390625,0.23193359375,-0.056396484375,8.25,-140.75,-52.125
1080,-0.1142578125,0.250244140625,-0.075927734375,10.75,-126.3125,-52.125
1082,-0.1142578125,0.250244140625,-0.075927734375,10.75,-126.3125,-52.125
1085,-0.086669921875,0.26171875,-0.093017578125,11.1875,-111.3125,-43.4375
1087,-0.086669921875,0.26171875,-0.093017578125,11.1875,-111.3125,-43.4375
1088,-0.1015625,0.262939453125,-0.093017578125,10.5625,-97.1875,-33.5
1090,-0.1015625,0.262939453125,-0.093017578125,10.5625,-97.1875,-33.5
1092,-0.136474609375,0.248046875,-0.0859375,9.25,-84.625,-23.625
1094,-0.136474609375,0.248046875,-0.0859375,9.25,-84.625,-23.625
1096,-0.17041015625,0.22021484375,-0.077880859375,7.875,-74.8125,-15.5625
1098,-0.17041015625,0.22021484375,-0.077880859375,7.875,-74.8125,-15.5625
1100,-0.17041015625,0.22021484375,-0.077880859375,7.875,-74.8125,-15.5625
1102,-0.1962890625,0.197998046875,-0.0703125,7.75,-67.625,-9.0625
1104,-0.1962890625,0.197998046875,-0.0703125,7.75,-67.625,-9.0625
1107,-0.213623046875,0.176025390625,-0.06103515625,8.125,-61.625,-4.375
1108,-0.213623046875,0.176025390625,-0.06103515625,8.125,-61.625,-4.375
1111,-0.227783203125,0.151123046875,-0.060546875,7.875,-54.5,-3.625
1113,-0.227783203125,0.151123046875,-0.060546875,7.875,-54.5,-3.625
1114,-0.241455078125,0.126708984375,-0.05810546875,6.625,-45.9375,-4.9375
1116,-0.241455078125,0.126708984375,-0.05810546875,6.625,-45.9375,-4.9375
1118,-0.2060546875,0.101318359375,-0.02587890625,1.75,-41.3125,-6.0625
1120,-0.2060546875,0.101318359375,-0.02587890625,1.75,-41.3125,-6.0625
1122,-0.2060546875,0.101318359375,-0.02587890625,1.75,-41.3125,-6.0625
1124,-0.19140625,0.082275390625,-0.00439453125,-4.9375,-40.8125,-6.75
1126,-0.19140625,0.082275390625,-0.00439453125,-4.9375,-40.8125,-6.75
1129,-0.20654296875,0.070556640625,-0.001953125,-10.875,-38.625,-8
1130,-0.20654296875,0.070556640625,-0.001953125,-10.875,-38.625,-8
1132,-0.199462890625,0.059814453125,-0.0126953125,-16.3125,-34.6875,-11.875
1134,-0.199462890625,0.059814453125,-0.0126953125,-16.3125,-34.6875,-11.875
1136,-0.171875,0.04443359375,-0.025146484375,-22.3125,-30.5625,-18.1875
1138,-0.171875,0.04443359375,-0.025146484375,-22.3125,-30.5625,-18.1875
1140,-0.171875,0.04443359375,-0.025146484375,-28.0625,-27.0625,-25.9375
1142,-0.1474609375,0.029296875,-0.03662109375,-28.0625,-27.0625,-25.9375
1144,-0.1474609375,0.029296875,-0.03662109375,-28.0625,-27.0625,-25.9375
1146,-0.13525390625,0.014892578125,-0.05322265625,-32.0625,-24.5625,-34.1875
1148,-0.13525390625,0.014892578125,-0.05322265625,-32.0625,-24.5625,-34.1875
1150,-0.120361328125,0.012451171875,-0.073974609375,-33.875,-23.8125,-42.6875
1152,-0.120361328125,0.012451171875,-0.073974609375,-33.875,-23.8125,-42.6875
1154,-0.08251953125,0.018798828125,-0.0859375,-34.875,-24.5625,-51.125
1156,-0.08251953125,0.018798828125,-0.0859375,-34.875,-24.5625,-51.125
1158,-0.023193359375,0.024169921875,-0.091552734375,-35.3125,-25.1875,-58.0625
1160,-0.023193359375,0.024169921875,-0.091552734375,-35.3125,-25.1875,-58.0625
1162,-0.023193359375,0.024169921875,-0.091552734375,-35.3125,-25.1875,-58.0625
1164,0.045166015625,0.0283203125,-0.0966796875,-34.5625,-24.1875,-62.125
1166,0.045166015625,0.0283203125,-0.0966796875,-34.5625,-24.1875,-62.125
1168,0.10546875,0.0361328125,-0.1083984375,-33,-20.8125,-63.375
1170,0.10546875,0.0361328125,-0.1083984375,-33,-20.8125,-63.375
1172,0.16357421875,0.046630859375,-0.116943359375,-31.75,-15,-61.6875
1174,0.16357421875,0.046630859375,-0.116943359375,-31.75,-15,-61.6875
1176,0.205810546875,0.0576171875,-0.115478515625,-30.0625,-7.8125,-58.1875
1178,0.205810546875,0.0576171875,-0.115478515625,-30.0625,-7.8125,-58.1875
1180,0.205810546875,0.062255859375,-0.12060546875,-26.5625,-0.0625,-52.625
1182,0.217529296875,0.062255859375,-0.12060546875,-26.5625,-0.0625,-52.625
1184,0.217529296875,0.062255859375,-0.12060546875,-26.5625,-0.0625,-52.625
1186,0.216552734375,0.059326171875,-0.1220703125,-21.875,7.9375,-45.5
1188,0.216552734375,0.059326171875,-0.1220703125,-21.875,7.9375,-45.5
1190,0.206298828125,0.053466796875,-0.117431640625,-16.0625,15.0625,-37.3125
1192,0.206298828125,0.053466796875,-0.117431640625,-16.0625,15.0625,-37.3125
1194,0.193115234375,0.045166015625,-0.10400390625,-9.5,20.6875,-29.375
1196,0.193115234375,0.045166015625,-0.10400390625,-9.5,20.6875,-29.375
1198,0.18798828125,0.033935546875,-0.079833984375,-2.8125,25.5,-22.9375
1200,0.18798828125,0.033935546875,-0.079833984375,-2.8125,25.5,-22.9375
1202,0.18798828125,0.033935546875,-0.079833984375,-2.8125,25.5,-22.9375
1204,0.18603515625,0.01513671875,-0.048095703125,4.4375,30,-18.0625
1206,0.18603515625,0.01513671875,-0.048095703125,4.4375,30,-18.0625
1208,0.186767578125,-0.00439453125,-0.011474609375,11.8125,34.25,-15.3125
1210,0.186767578125,-0.00439453125,-0.011474609375,11.8125,34.25,-15.3125
1211,0.185791015625,-0.011474609375,0.015869140625,18.6875,37.5,-13.9375
1213,0.185791015625,-0.011474609375,0.015869140625,18.6875,37.5,-13.9375
1216,0.18212890625,-0.007568359375,0.038330078125,24.0625,39.375,-13.75
1218,0.18212890625,-0.007568359375,0.038330078125,24.0625,39.375,-13.75
1220,0.18212890625,-0.007568359375,0.038330078125,24.0625,39.375,-13.75
1221,0.1865234375,0.0029296875,0.055419921875,27.5625,40.375,-14.125
1224,0.1865234375,0.0029296875,0.055419921875,27.5625,40.375,-14.125
1226,0.1962890625,0.023681640625,0.07470703125,28.6875,40.6875,-14.3125
1228,0.1962890625,0.023681640625,0.07470703125,28.6875,40.6875,-14.3125
1230,0.208740234375,0.05126953125,0.10302734375,26.6875,41.25,-13.9375
1231,0.208740234375,0.05126953125,0.10302734375,26.6875,41.25,-13.9375
1233,0.208740234375,0.07470703125,0.130859375,21.75,42.3125,-13
1235,0.2177734375,0.07470703125,0.130859375,21.75,42.3125,-13
1238,0.223876953125,0.08203125,0.1474609375,15.5,43.6875,-11.4375
1240,0.223876953125,0.08203125,0.1474609375,15.5,43.6875,-11.4375
1242,0.223876953125,0.08203125,0.1474609375,15.5,43.6875,-11.4375
1244,0.231689453125,0.0771484375,0.155517578125,8.875,44.8125,-9.125
1245,0.231689453125,0.0771484375,0.155517578125,8.875,44.8125,-9.125
1247,0.235595703125,0.06494140625,0.157958984375,3.375,46.1875,-6.25
1249,0.235595703125,0.06494140625,0.157958984375,3.375,46.1875,-6.25
1251,0.230712890625,0.04931640625,0.15576171875,-0.4375,47.5,-3.25
1253,0.230712890625,0.04931640625,0.15576171875,-0.4375,47.5,-3.25
1255,0.230712890625,0.04931640625,0.15576171875,-0.4375,47.5,-3.25
1257,0.218994140625,0.03271484375,0.14697265625,-2,49.1875,-0.375
1260,0.218994140625,0.03271484375,0.14697265625,-2,49.1875,15.625
1262,0.20458984375,0.02099609375,0.13427734375,-1.1875,50.75,2.4375
1264,0.20458984375,0.02099609375,0.13427734375,-1.1875,50.75,2.4375
1266,0.19189453125,0.0107421875,0.122802734375,1.3125,52,6.125
1268,0.19189453125,0.0107421875,0.122802734375,1.3125,52,6.125
1270,0.1796875,-0.001708984375,0.112060546875,5.625,52.9375,9.9375
1272,0.1796875,-0.001708984375,0.112060546875,5.625,52.9375,9.9375
1274,0.167236328125,-0.015380859375,0.100830078125,10.5,54.5625,14.5625
1276,0.167236328125,-0.015380859375,0.100830078125,10.5,54.5625,14.5625
1278,0.167236328125,-0.015380859375,0.100830078125,15.3125,56.25,19.5625
1279,0.157470703125,-0.02490234375,0.09228515625,15.3125,56.25,19.5625
1282,0.157470703125,-0.02490234375,0.09228515625,15.3125,56.25,19.5625
1284,0.14453125,-0.032470703125,0.08935546875,19.8125,58,24.3125
1286,0.14453125,-0.032470703125,0.08935546875,19.8125,58,24.3125
1288,0.12548828125,-0.043212890625,0.089599609375,24.1875,59.625,28.8125
1290,0.12548828125,-0.043212890625,0.089599609375,24.1875,59.625,28.8125
1292,0.104736328125,-0.060546875,0.090087890625,28.25,61.9375,32.4375
1294,0.104736328125,-0.060546875,0.090087890625,28.25,61.9375,32.4375
1296,0.082763671875,-0.082275390625,0.0927734375,31.9375,64.875,34.4375
1299,0.082763671875,-0.082275390625,0.0927734375,31.9375,64.875,34.4375
1301,0.054443359375,-0.107421875,0.090087890625,35.625,68.375,35
1303,0.054443359375,-0.107421875,0.090087890625,35.625,68.375,35
1305,0.0185546875,-0.126953125,0.088623046875,39.125,71.875,34.9375
1308,0.0185546875,-0.126953125,0.088623046875,39.125,71.875,34.9375
1310,-0.020263671875,-0.13623046875,0.089599609375,41.5625,74.9375,34.3125
1312,-0.020263671875,-0.13623046875,0.089599609375,41.5625,74.9375,34.3125
1314,-0.06103515625,-0.13671875,0.091064453125,42.25,77.9375,33.0625
1316,-0.06103515625,-0.13671875,0.091064453125,42.25,77.9375,33.0625
1318,-0.06103515625,-0.13330078125,0.091796875,42.3125,80.8125,31.0625
1320,-0.103271484375,-0.13330078125,0.091796875,42.3125,80.8125,31.0625
1322,-0.103271484375,-0.13330078125,0.091796875,42.3125,80.8125,31.0625
1324,-0.1484375,-0.126708984375,0.090087890625,41.8125,83.4375,28.0625
1326,-0.1484375,-0.126708984375,0.090087890625,41.8125,83.4375,28.0625
1328,-0.198974609375,-0.116943359375,0.090087890625,40.6875,86.1875,24.3125
1331,-0.198974609375,-0.116943359375,0.090087890625,40.6875,86.1875,24.3125
1333,-0.248779296875,-0.1015625,0.093017578125,39.625,88.0625,20.0625
1335,-0.248779296875,-0.1015625,0.093017578125,39.625,88.0625,20.0625
1337,-0.2841796875,-0.078369140625,0.097900390625,38.5,89.5625,14.875
1339,-0.2841796875,-0.078369140625,0.097900390625,38.5,89.5625,14.875
1341,-0.30517578125,-0.05517578125,0.103515625,37.1875,91,9.8125
1343,-0.30517578125,-0.05517578125,0.103515625,37.1875,91,9.8125
1346,-0.32080078125,-0.03173828125,0.111572265625,36.375,92.1875,4.0625
1348,-0.32080078125,-0.03173828125,0.111572265625,36.375,92.1875,4.0625
1350,-0.33154296875,-0.005859375,0.118896484375,36,93.625,-2.125
1352,-0.33154296875,-0.005859375,0.118896484375,36,93.625,-2.125
1354,-0.330810546875,0.0244140625,0.12109375,36.8125,95.1875,-7.6875
1356,-0.330810546875,0.0244140625,0.12109375,36.8125,95.1875,-7.6875
1358,-0.315185546875,0.058837890625,0.12158203125,39.0625,96.3125,-11.8125
1360,-0.315185546875,0.058837890625,0.12158203125,39.0625,96.3125,-11.8125
1362,-0.294677734375,0.104736328125,0.133544921875,41.9375,97,-13.9375
1364,-0.294677734375,0.104736328125,0.133544921875,41.9375,97,-13.9375
1366,-0.294677734375,0.104736328125,0.133544921875,41.9375,97,-13.9375
1368,-0.287353515625,0.16552734375,0.1484375,43.9375,98.1875,-13.6875
1370,-0.287353515625,0.16552734375,0.1484375,43.9375,98.1875,-13.6875
1372,-0.291015625,0.221923828125,0.17138671875,43.625,101.125,-11.0625
1373,-0.291015625,0.221923828125,0.17138671875,43.625,101.125,-11.0625
1376,-0.29541015625,0.249755859375,0.173583984375,39.875,106.4375,-5.75
1378,-0.29541015625,0.249755859375,0.173583984375,39.875,106.4375,-5.75
1380,-0.3076171875,0.24951171875,0.158447265625,34.5,113.0625,1.5625
1382,-0.3076171875,0.24951171875,0.158447265625,34.5,113.0625,1.5625
1384,-0.3076171875,0.24951171875,0.158447265625,34.5,113.0625,1.5625
1386,-0.334716796875,0.239013671875,0.15576171875,29,120.5625,9.375
1388,-0.334716796875,0.239013671875,0.15576171875,29,120.5625,9.375
1390,-0.372802734375,0.2255859375,0.17236328125,23.875,129.125,16.6875
1391,-0.372802734375,0.2255859375,0.17236328125,23.875,129.125,16.6875
1393,-0.4267578125,0.204833984375,0.2041015625,19.75,137.9375,22.875
1395,-0.4267578125,0.204833984375,0.2041015625,19.75,137.9375,22.875
1398,-0.49560546875,0.173828125,0.232177734375,17.375,145.375,27.8125
1400,-0.49560546875,0.173828125,0.232177734375,17.375,145.375,27.8125
1402,-0.49560546875,0.173828125,0.232177734375,17.0625,150.8125,31.0625
1403,-0.56103515625,0.13818359375,0.254638671875,17.0625,150.8125,31.0625
1405,-0.56103515625,0.13818359375,0.254638671875,17.0625,150.8125,31.0625
1407,-0.617431640625,0.107666015625,0.27685546875,18.8125,154.375,32.625
1409,-0.617431640625,0.107666015625,0.27685546875,18.8125,154.375,32.625
1411,-0.666015625,0.0859375,0.299560546875,22,156.375,33.0625
1413,-0.666015625,0.0859375,0.299560546875,22,156.375,33.0625
1415,-0.728515625,0.084716796875,0.3193359375,25.5,156.875,32.1875
1417,-0.7060546875,0.084716796875,0.3193359375,25.5,156.875,32.1875
1420,-0.739013671875,0.099365234375,0.339111328125,28.1875,156.9375,29.8125
1421,-0.739013671875,0.099365234375,0.339111328125,28.1875,156.9375,29.8125
1423,-0.739013671875,0.099365234375,0.339111328125,28.1875,156.9375,29.8125
1425,-0.76416015625,0.1240234375,0.36328125,30.4375,156.8125,26.3125
1427,-0.76416015625,0.1240234375,0.36328125,30.4375,156.8125,26.3125
1429,-0.771728515625,0.159912109375,0.38818359375,32.5,155.625,21.625
1431,-0.771728515625,0.159912109375,0.38818359375,32.5,155.625,21.625
1433,-0.751953125,0.205322265625,0.42578125,34.5,153.5625,15.8125
1435,-0.751953125,0.205322265625,0.42578125,34.5,153.5625,15.8125
1437,-0.751953125,0.205322265625,0.481689453125,36.0625,151.5625,10.3125
1439,-0.71240234375,0.268798828125,0.481689453125,36.0625,151.5625,10.3125
1442,-0.680908203125,0.337890625,0.54345703125,37.4375,150.3125,6.25
1444,-0.680908203125,0.337890625,0.54345703125,37.4375,150.3125,6.25
1446,-0.680908203125,0.337890625,0.54345703125,37.4375,150.3125,6.25
1448,-0.63916015625,0.39794921875,0.58544921875,37.8125,151.5625,5.3125
1449,-0.63916015625,0.39794921875,0.58544921875,37.8125,151.5625,5.3125
1451,-0.577392578125,0.44775390625,0.628662109375,35.875,154.3125,7
1453,-0.577392578125,0.44775390625,0.628662109375,35.875,154.3125,7
1455,-0.556396484375,0.490234375,0.67138671875,34.375,158.25,10.375
1457,-0.556396484375,0.490234375,0.67138671875,34.375,158.25,10.375
1459,-0.556396484375,0.490234375,0.67138671875,18.375,164.25,16.0625
1461,-0.537353515625,0.5068359375,0.71044921875,31.0625,164.25,16.0625
1463,-0.537353515625,0.5068359375,0.71044921875,31.0625,164.25,16.0625
1465,-0.536376953125,0.496337890625,0.773193359375,25.875,170.625,25.1875
1467,-0.536376953125,0.496337890625,0.773193359375,25.875,170.625,25.1875
1470,-0.47314453125,0.478271484375,0.754638671875,22.9375,188.8125,34.625
1472,-0.47314453125,0.478271484375,0.754638671875,22.9375,188.8125,34.625
1474,-0.572021484375,0.36767578125,0.81884765625,18.75,202.25,27.875
1477,-0.572021484375,0.291015625,0.83544921875,12.25,197.75,19.25
1479,-0.768310546875,0.291015625,0.83544921875,12.25,197.75,19.25
1481,-0.768310546875,0.291015625,0.83544921875,12.25,197.75,19.25
1483,-0.941650390625,0.28125,0.88037109375,7.125,206.75,35.6875
1485,-0.941650390625,0.28125,0.88037109375,7.125,206.75,35.6875
1487,-0.955810546875,0.2333984375,0.881591796875,6.75,223.3125,63
1489,-0.955810546875,0.2333984375,0.881591796875,6.75,223.3125,63
1491,-0.94091796875,0.2119140625,0.8212890625,7.3125,228.75,79.75
1493,-0.94091796875,0.2119140625,0.8212890625,7.3125,228.75,79.75
1495,-0.96484375,0.1875,0.848876953125,9.6875,224.5625,84.875
1497,-0.96484375,0.1875,0.848876953125,9.6875,224.5625,84.875
1499,-1.0419921875,0.12109375,0.947998046875,13.875,217.6875,85.5
1501,-1.0419921875,0.12109375,0.947998046875,13.875,217.6875,85.5
1503,-1.0419921875,0.12109375,0.947998046875,13.875,217.6875,85.5
1505,-1.143310546875,0.0341796875,1.02880859375,19.0625,205.4375,83.5625
1507,-1.143310546875,0.0341796875,1.02880859375,19.0625,205.4375,83.5625
1509,-1.20458984375,-0.0458984375,1.087158203125,27.5,187.375,75.1875
1512,-1.20458984375,-0.0458984375,1.087158203125,27.5,187.375,75.1875
1514,-1.18408203125,-0.0947265625,1.13232421875,38.375,169.5,61.75
1516,-1.18408203125,-0.0947265625,1.13232421875,38.375,169.5,61.75
1518,-1.115478515625,-0.10546875,1.152099609375,47.6875,156.5,48.125
1520,-1.115478515625,-0.10546875,1.152099609375,47.6875,156.5,48.125
1522,-1.0478515625,-0.081298828125,1.142333984375,51.0625,148.1875,37.6875
1523,-1.0478515625,-0.081298828125,1.142333984375,51.0625,148.1875,37.6875
1526,-1.0478515625,-0.081298828125,1.142333984375,51.0625,148.1875,29.6875
1527,-1.011474609375,-0.04443359375,1.1181640625,48.8125,144.125,29.6875
1529,-1.011474609375,-0.04443359375,1.1181640625,48.8125,144.125,29.6875
1531,-1.00830078125,-0.008056640625,1.10498046875,43.3125,143.75,23.8125
1534,-1.00830078125,-0.008056640625,1.10498046875,43.3125,143.75,23.8125
1536,-1.028564453125,0.020751953125,1.1064453125,37.1875,146.25,19.1875
1538,-1.028564453125,0.020751953125,1.1064453125,37.1875,146.25,19.1875
1540,-1.061279296875,0.039794921875,1.115478515625,32.625,151.75,15.0625
1542,-1.061279296875,0.039794921875,1.115478515625,32.625,151.75,15.0625
1544,-1.0869140625,0.05078125,1.1376953125,30.5,158.5,10.6875
1546,-1.0869140625,0.05078125,1.1376953125,30.5,158.5,10.6875
1547,-1.0869140625,0.05078125,1.1376953125,30.5,158.5,10.6875
1550,-1.13623046875,0.063720703125,1.162353515625,32.25,164.9375,6.25
1552,-1.13623046875,0.063720703125,1.162353515625,32.25,164.9375,6.25
1554,-1.206787109375,0.078125,1.203369140625,39.0625,171.25,2.5625
1556,-1.206787109375,0.078125,1.203369140625,39.0625,171.25,2.5625
1558,-1.238525390625,0.10546875,1.27490234375,47.1875,174.5,1.625
1560,-1.238525390625,0.10546875,1.27490234375,47.1875,174.5,1.625
1562,-1.260986328125,0.12841796875,1.346923828125,57.125,176.4375,2.9375
1564,-1.260986328125,0.12841796875,1.346923828125,57.125,176.4375,2.9375
1566,-1.260986328125,0.150146484375,1.419921875,68.125,178.3125,4.125
1568,-1.2861328125,0.150146484375,1.419921875,68.125,178.3125,4.125
1570,-1.2861328125,0.150146484375,1.419921875,68.125,178.3125,4.125
1572,-1.305419921875,0.1748046875,1.494384765625,78.5,178.6875,6.25
1574,-1.305419921875,0.1748046875,1.494384765625,78.5,178.6875,6.25
1575,-1.31982421875,0.204833984375,1.56005859375,87.3125,178.3125,8.9375
1578,-1.31982421875,0.204833984375,1.56005859375,87.3125,178.3125,8.9375
1580,-1.328125,0.2451171875,1.617919921875,92.25,177.875,11.875
1584,-1.322021484375,0.293701171875,1.6669921875,90.75,175.4375,14.5625
1585,-1.322021484375,0.293701171875,1.6669921875,90.75,175.4375,14.5625
1587,-1.322021484375,0.293701171875,1.6669921875,90.75,175.4375,14.5625
1589,-1.30078125,0.340576171875,1.710205078125,83.9375,170.4375,17.9375
1591,-1.30078125,0.340576171875,1.710205078125,83.9375,170.4375,17.9375
1593,-1.275390625,0.366455078125,1.744140625,73.625,164.625,21.3125
1595,-1.275390625,0.366455078125,1.744140625,73.625,164.625,21.3125
1597,-1.2529296875,0.372802734375,1.758056640625,60.875,158.8125,23.875
1599,-1.2529296875,0.372802734375,1.758056640625,60.875,158.8125,23.875
1602,-1.235595703125,0.362060546875,1.74755859375,46.9375,153.75,26.625
1604,-1.235595703125,0.362060546875,1.74755859375,46.9375,153.75,26.625
1606,-1.226318359375,0.3251953125,1.7275390625,35.125,149.6875,29.5
1608,-1.226318359375,0.3251953125,1.7275390625,35.125,149.6875,29.5
1610,-1.226318359375,0.3251953125,1.7275390625,28.3125,147.5,32.125
1612,-1.232177734375,0.27783203125,1.710205078125,28.3125,147.5,32.125
1614,-1.232177734375,0.27783203125,1.710205078125,28.3125,147.5,32.125
1616,-1.254150390625,0.237060546875,1.69921875,26.5625,148.375,34.125
1618,-1.254150390625,0.237060546875,1.69921875,26.5625,148.375,34.125
1620,-1.298828125,0.22021484375,1.7041015625,28.25,151.6875,35.1875
1622,-1.298828125,0.22021484375,1.7041015625,28.25,151.6875,35.1875
1624,-1.352783203125,0.2294921875,1.7333984375,32.3125,156.6875,35.3125
1626,-1.352783203125,0.2294921875,1.7333984375,32.3125,156.6875,35.3125
1628,-1.40234375,0.251220703125,1.786865234375,36.8125,163.0625,35.1875
1630,-1.40234375,0.251220703125,1.786865234375,36.8125,163.0625,35.1875
1632,-1.40234375,0.251220703125,1.786865234375,36.8125,163.0625,35.25
1634,-1.434814453125,0.2646484375,1.858154296875,41.5,170,35.25
1636,-1.434814453125,0.2646484375,1.858154296875,41.5,170,35.25
1638,-1.45166015625,0.256591796875,1.9365234375,46.4375,175.875,36.0625
1639,-1.45166015625,0.256591796875,1.9365234375,46.4375,175.875,36.0625
1641,-1.465576171875,0.232177734375,2.02392578125,52.3125,179.4375,37.875
1643,-1.465576171875,0.232177734375,2.02392578125,52.3125,179.4375,37.875
1646,-1.4619140625,0.199462890625,2.110595703125,58.8125,180.9375,40.1875
1648,-1.4619140625,0.199462890625,2.110595703125,58.8125,180.9375,40.1875
1650,-1.4619140625,0.199462890625,2.110595703125,58.8125,180.9375,41.75
1651,-1.42626953125,0.166259765625,2.17919921875,64.1875,180.0625,41.75
1653,-1.42626953125,0.166259765625,2.17919921875,64.1875,180.0625,41.75
1655,-1.403076171875,0.147705078125,2.224853515625,67.8125,175.9375,43.9375
1657,-1.403076171875,0.147705078125,2.224853515625,67.8125,175.9375,43.9375
1659,-1.407958984375,0.143798828125,2.2587890625,69.125,166.8125,50
1661,-1.407958984375,0.143798828125,2.2587890625,69.125,166.8125,50
1663,-1.41064453125,0.143798828125,2.286865234375,68.5625,152.6875,57.8125
1665,-1.41064453125,0.143798828125,2.286865234375,68.5625,152.6875,57.8125
1668,-1.41064453125,0.138916015625,2.292724609375,66.9375,135.5625,63.5625
1670,-1.390625,0.138916015625,2.292724609375,66.9375,135.5625,63.5625
1673,-1.359619140625,0.123291015625,2.2568359375,64.25,117.4375,65.8125
1675,-1.359619140625,0.123291015625,2.2568359375,64.25,117.4375,65.8125
1677,-1.277099609375,0.0908203125,2.18505859375,56.875,100.75,65.0625
1679,-1.277099609375,0.0908203125,2.18505859375,56.875,100.75,65.0625
1681,-1.221435546875,0.044677734375,2.106201171875,46.75,84.8125,61.1875
1683,-1.221435546875,0.044677734375,2.106201171875,46.75,84.8125,61.1875
1685,-1.221435546875,0.044677734375,2.106201171875,46.75,84.8125,61.1875
1687,-1.199951171875,-0.001953125,2.0126953125,35.8125,72,55.75
1689,-1.199951171875,-0.001953125,2.0126953125,35.8125,72,55.75
1691,-1.184814453125,-0.04345703125,1.923583984375,24.625,64.0625,49.875
1693,-1.184814453125,-0.04345703125,1.923583984375,24.625,64.0625,49.875
1695,-1.1513671875,-0.084228515625,1.845703125,15.1875,59.0625,43.0625
1697,-1.1513671875,-0.084228515625,1.845703125,15.1875,59.0625,43.0625
1699,-1.109619140625,-0.1171875,1.7900390625,8.25,55.875,35.4375
1701,-1.109619140625,-0.1171875,1.7900390625,8.25,55.875,35.4375
1703,-1.109619140625,-0.142333984375,1.75244140625,3.25,54.5625,27.1875
1705,-1.07861328125,-0.142333984375,1.75244140625,3.25,54.5625,27.1875
1707,-1.07861328125,-0.142333984375,1.75244140625,3.25,54.5625,19.4375
1709,-1.05615234375,-0.16748046875,1.71875,-0.3125,54.9375,19.4375
1711,-1.05615234375,-0.16748046875,1.71875,-0.3125,54.9375,19.4375
1713,-1.041748046875,-0.200927734375,1.685302734375,-1.9375,55.5,12.125
1715,-1.041748046875,-0.200927734375,1.685302734375,-1.9375,55.5,12.125
1717,-1.0224609375,-0.23291015625,1.666748046875,-1.125,55.5625,4.5
1719,-1.0224609375,-0.23291015625,1.666748046875,-1.125,55.5625,4.5
1721,-0.99169921875,-0.245361328125,1.666015625,2.4375,54.4375,-3.375
1723,-0.99169921875,-0.245361328125,1.666015625,2.4375,54.4375,-3.375
1725,-0.99169921875,-0.245361328125,1.666015625,2.4375,52,-12.5625
1727,-0.963623046875,-0.241943359375,1.676025390625,8.3125,52,-12.5625
1729,-0.963623046875,-0.241943359375,1.676025390625,8.3125,52,-12.5625
1731,-0.956787109375,-0.22265625,1.68212890625,14.0625,49.25,-21.9375
1733,-0.956787109375,-0.22265625,1.68212890625,14.0625,49.25,-21.9375
1735,-0.92724609375,-0.19580078125,1.681396484375,17.9375,45.6875,-28.8125
1737,-0.92724609375,-0.19580078125,1.681396484375,17.9375,45.6875,-28.8125
1739,-0.83837890625,-0.19091796875,1.6376953125,20.3125,46.4375,-40.25
1741,-0.83837890625,-0.19091796875,1.6376953125,20.3125,46.4375,-40.25
1743,-0.85986328125,-0.141845703125,1.597900390625,21.8125,45.4375,-46.3125
1745,-0.85986328125,-0.141845703125,1.597900390625,21.8125,45.4375,-46.3125
1747,-0.85986328125,-0.141845703125,1.597900390625,22.0625,39.625,-46.4375
1749,-0.840576171875,-0.12255859375,1.589111328125,22.0625,39.625,-46.4375
1751,-0.840576171875,-0.12255859375,1.589111328125,22.0625,39.625,-46.4375
1753,-0.756103515625,-0.1142578125,1.564208984375,21.4375,39.125,-53.6875
1755,-0.756103515625,-0.1142578125,1.564208984375,21.4375,39.125,-53.6875
1757,-0.711669921875,-0.110595703125,1.495849609375,19.6875,43.1875,-63.1875
1759,-0.711669921875,-0.110595703125,1.495849609375,19.6875,43.1875,-63.1875
1761,-0.70068359375,-0.1220703125,1.43896484375,16.9375,46.9375,-68.8125
1763,-0.70068359375,-0.1220703125,1.43896484375,16.9375,46.9375,-68.8125
1765,-0.703369140625,-0.122802734375,1.400390625,15.1875,48.25,-71.25
1767,-0.703369140625,-0.122802734375,1.400390625,15.1875,48.25,-71.25
1769,-0.703369140625,-0.122802734375,1.400390625,15.1875,48.25,-71.25
1771,-0.75927734375,-0.086181640625,1.354248046875,10.625,48.1875,-67
1773,-0.75927734375,-0.086181640625,1.354248046875,10.625,48.1875,-67
1776,-0.8662109375,-0.022705078125,1.343505859375,8,47.9375,-51.4375
1779,-0.933349609375,0.0361328125,1.348388671875,8.9375,46.625,-30.8125
1781,-0.933349609375,0.0361328125,1.348388671875,8.9375,46.625,-30.8125
1784,-0.8984375,0.061767578125,1.388427734375,16.4375,43.25,-17.3125
1786,-0.8984375,0.061767578125,1.388427734375,16.4375,43.25,-17.3125
1788,-0.824951171875,0.060791015625,1.407958984375,29.0625,37.875,-16
1790,-0.824951171875,0.060791015625,1.407958984375,29.0625,37.875,-16
1792,-0.771240234375,0.04248046875,1.408203125,39.625,32.75,-22.6875
1794,-0.771240234375,0.04248046875,1.408203125,39.625,32.75,-22.6875
1796,-0.771240234375,0.04248046875,1.408203125,39.625,32.75,-22.6875
1798,-0.744140625,0.025146484375,1.41455078125,43.8125,28.3125,-31.4375
1800,-0.744140625,0.025146484375,1.41455078125,43.8125,28.3125,-31.4375
1802,-0.73486328125,0.03564453125,1.407470703125,43.4375,22.8125,-39.375
1804,-0.73486328125,0.03564453125,1.407470703125,43.4375,22.8125,-39.375
1806,-0.729736328125,0.070556640625,1.388427734375,41.4375,15.5625,-45.4375
1808,-0.729736328125,0.070556640625,1.388427734375,41.4375,15.5625,-45.4375
1810,-0.71533203125,0.118408203125,1.3642578125,38.25,6.4375,-49
1812,-0.71533203125,0.118408203125,1.3642578125,38.25,6.4375,-49
1814,-0.668701171875,0.165771484375,1.349609375,33.5,-2,-50.8125
1816,-0.668701171875,0.165771484375,1.349609375,33.5,-2,-50.8125
1818,-0.668701171875,0.165771484375,1.349609375,33.5,-2,-51.5
1820,-0.59423828125,0.20556640625,1.333251953125,26.625,-7.625,-51.5
1822,-0.59423828125,0.20556640625,1.333251953125,26.625,-7.625,-51.5
1824,-0.516845703125,0.23876953125,1.3037109375,19.8125,-10.3125,-51.125
1825,-0.516845703125,0.23876953125,1.3037109375,19.8125,-10.3125,-51.125
1828,-0.439697265625,0.265625,1.268310546875,13.5625,-10.375,-50.8125
1830,-0.439697265625,0.265625,1.268310546875,13.5625,-10.375,-50.8125
1832,-0.372802734375,0.2880859375,1.230224609375,6.375,-7.8125,-50
1834,-0.372802734375,0.2880859375,1.230224609375,6.375,-7.8125,-50
1836,-0.372802734375,0.2880859375,1.230224609375,6.375,-7.8125,-50
1837,-0.320068359375,0.298828125,1.19189453125,-0.75,-2.4375,-47.0625
1839,-0.320068359375,0.298828125,1.19189453125,-0.75,-2.4375,-47.0625
1841,-0.26953125,0.30322265625,1.159423828125,-5.8125,3.5,-41.75
1843,-0.26953125,0.30322265625,1.159423828125,-5.8125,3.5,-41.75
1845,-0.232421875,0.294921875,1.132080078125,-7.875,8.8125,-35.875
1847,-0.232421875,0.294921875,1.132080078125,-7.875,8.8125,-35.875
1849,-0.1943359375,0.2783203125,1.1015625,-8.125,13.5625,-29.5
1852,-0.1943359375,0.2783203125,1.1015625,-8.125,13.5625,-29.5
1854,-0.14453125,0.258544921875,1.080078125,-6.9375,17.1875,-23.4375
1855,-0.14453125,0.258544921875,1.080078125,-6.9375,17.1875,-23.4375
1857,-0.14453125,0.258544921875,1.080078125,-6.9375,17.1875,-23.4375
1859,-0.114501953125,0.2333984375,1.076416015625,-5.125,19.8125,-18.6875
1861,-0.114501953125,0.2333984375,1.076416015625,-5.125,19.8125,-18.6875
1863,-0.093017578125,0.211669921875,1.088134765625,-4.1875,22.625,-16.375
1865,-0.093017578125,0.211669921875,1.088134765625,-4.1875,22.625,-16.375
1867,-0.08154296875,0.18798828125,1.1015625,-4.3125,25.5,-16.4375
1869,-0.08154296875,0.18798828125,1.1015625,-4.3125,25.5,-16.4375
1871,-0.08154296875,0.18798828125,1.1015625,-4.3125,25.5,-16.4375
1873,-0.0810546875,0.158935546875,1.105224609375,-4.875,27.0625,-17.875
1875,-0.0810546875,0.158935546875,1.105224609375,-4.875,27.0625,-17.875
1878,-0.065673828125,0.1337890625,1.1171875,-5.8125,25.6875,-18.75
1880,-0.065673828125,0.1337890625,1.1171875,-5.8125,25.6875,-18.5625
1882,-0.05078125,0.108642578125,1.10498046875,-6.5,20.625,-18.5625
1884,-0.05078125,0.108642578125,1.10498046875,-6.5,20.625,-18.5625
1886,-0.082763671875,0.10009765625,1.052001953125,-3.0625,19.6875,-20.875
1888,-0.082763671875,0.10009765625,1.052001953125,-3.0625,19.6875,-20.875
1889,-0.06494140625,0.1123046875,1.080322265625,-2.3125,19.1875,-23.75
1891,-0.06494140625,0.1123046875,1.080322265625,-2.3125,19.1875,-23.75
1893,-0.06494140625,0.1259765625,1.08642578125,-4,17.4375,-26.625
1895,-0.02490234375,0.1259765625,1.08642578125,-4,17.4375,-26.625
1897,-0.02490234375,0.1259765625,1.08642578125,-4,17.4375,-26.625
1900,-0.00634765625,0.135009765625,1.0712890625,-6.5,16.0625,-29.5
1902,-0.00634765625,0.135009765625,1.0712890625,-6.5,16.0625,-29.5
1903,-0.003173828125,0.137451171875,1.04736328125,-8.875,15.3125,-31.375
1905,-0.003173828125,0.137451171875,1.04736328125,-8.875,15.3125,-31.375
1907,0.00146484375,0.14111328125,1.027587890625,-10.875,15,-32.5625
1909,0.00146484375,0.14111328125,1.027587890625,-10.875,15,-32.5625
1911,0.005615234375,0.14794921875,1.009521484375,-12.125,15.25,-33.5
1913,0.005615234375,0.14794921875,1.009521484375,-12.125,15.25,-33.5
1915,0.005615234375,0.14794921875,1.009521484375,-12.125,15.25,-33.5
1917,0.00927734375,0.1533203125,0.98974609375,-12.9375,16.875,-34.3125
1919,0.00927734375,0.1533203125,0.98974609375,-12.9375,16.875,-34.3125
1921,0.0146484375,0.157958984375,0.969970703125,-13.1875,19.3125,-35.4375
1923,0.0146484375,0.157958984375,0.969970703125,-13.1875,19.3125,-35.4375
1925,0.018310546875,0.165283203125,0.953369140625,-13.0625,22.4375,-36.875
1927,0.018310546875,0.165283203125,0.953369140625,-13.0625,22.4375,-36.875
1929,0.0234375,0.173828125,0.946044921875,-12.75,25.25,-38.875
1931,0.0234375,0.173828125,0.946044921875,-12.75,25.25,-38.875
1933,0.0234375,0.183837890625,0.9462890625,-11.5,27.3125,-40.75
1935,0.0263671875,0.183837890625,0.9462890625,-11.5,27.3125,-40.75
1937,0.0263671875,0.183837890625,0.9462890625,-11.5,27.3125,-40.75
1939,0.024169921875,0.19580078125,0.953369140625,-9.3125,28.625,-42.0625
1941,0.024169921875,0.19580078125,0.953369140625,-9.3125,28.625,-42.0625
1943,0.017578125,0.206298828125,0.95556640625,-6.3125,29.125,-42.6875
1945,0.017578125,0.206298828125,0.95556640625,-6.3125,29.125,-42.6875
1947,0.0146484375,0.2119140625,0.95751953125,-2.8125,28.75,-42.4375
1949,0.0146484375,0.2119140625,0.95751953125,-2.8125,28.75,-42.4375
1952,0.0205078125,0.2119140625,0.956298828125,1.125,27.8125,-41.125
1954,0.0205078125,0.2119140625,0.956298828125,1.125,27.8125,-41.125
1956,0.028076171875,0.21337890625,0.947265625,5.5625,25.8125,-39.1875
1958,0.028076171875,0.21337890625,0.947265625,5.5625,25.8125,-39.1875
1960,0.028076171875,0.219482421875,0.93994140625,9.8125,23.4375,-36.875
1962,0.0390625,0.219482421875,0.93994140625,9.8125,23.4375,-36.875
1964,0.0390625,0.219482421875,0.93994140625,9.8125,23.4375,-36.875
1966,0.0556640625,0.230712890625,0.940673828125,11.8125,21.5625,-34.5625
1968,0.0556640625,0.230712890625,0.940673828125,11.8125,21.5625,-34.5625
1970,0.072998046875,0.24365234375,0.941650390625,11.0625,20.625,-32.875
1972,0.072998046875,0.24365234375,0.941650390625,11.0625,20.625,-32.875
1974,0.089599609375,0.255859375,0.933349609375,7.4375,21.0625,-31.6875
1976,0.089599609375,0.255859375,0.933349609375,7.4375,21.0625,-31.6875
1978,0.101806640625,0.259765625,0.92724609375,2.5625,21.9375,-30.5
1980,0.101806640625,0.259765625,0.92724609375,2.5625,21.9375,-30.5
1982,0.101806640625,0.259765625,0.92724609375,2.5625,21.9375,-30.5
1983,0.109619140625,0.2587890625,0.93212890625,-2.6875,22.375,-28.875
1986,0.109619140625,0.2587890625,0.93212890625,-2.6875,22.375,-28.875
1989,0.114990234375,0.260009765625,0.942626953125,-7.4375,22.125,-27.0625
1991,0.114990234375,0.260009765625,0.942626953125,-7.4375,21.375,-25.1875
1993,0.121337890625,0.260498046875,0.953125,-11.4375,21.375,-25.1875
1995,0.123291015625,0.2568359375,0.953857421875,-14.0625,19.8125,-23.125
1997,0.123291015625,0.2568359375,0.953857421875,-14.0625,19.8125,-23.125
1999,0.123291015625,0.2568359375,0.953857421875,-14.0625,19.8125,-23.125
2001,0.119384765625,0.255615234375,0.9443359375,-15.25,17.125,-21.0625
2003,0.119384765625,0.255615234375,0.9443359375,-15.25,17.125,-21.0625
2005,0.112060546875,0.243408203125,0.933837890625,-14.75,13.1875,-18.5625
2007,0.112060546875,0.243408203125,0.933837890625,-14.75,13.1875,-18.5625
2009,0.101806640625,0.22705078125,0.908203125,-12.0625,7.9375,-16.4375
2011,0.101806640625,0.22705078125,0.908203125,-12.0625,7.9375,-16.4375
2013,0.101806640625,0.22705078125,0.908203125,-12.0625,7.9375,-0.4375
2015,0.079833984375,0.227294921875,0.874755859375,-8,2.1875,-12.625
2017,0.079833984375,0.227294921875,0.874755859375,-8,-13.8125,-6.8125
2019,0.064453125,0.234619140625,0.845458984375,-3.5,-3.4375,-6.8125
2022,0.064453125,0.234619140625,0.845458984375,-3.5,-3.4375,-6.8125
2025,0.06298828125,0.243896484375,0.823974609375,0.25,-8.375,-2.75
2027,0.06689453125,0.25341796875,0.80419921875,2.1875,-10.4375,-1.0625
2029,0.06689453125,0.25341796875,0.80419921875,2.1875,-10.4375,-1.0625
2031,0.06689453125,0.25341796875,0.784912109375,0.6875,-8.5,-0.3125
2033,0.072509765625,0.263427734375,0.784912109375,0.6875,-8.5,-0.3125
2035,0.072509765625,0.263427734375,0.784912109375,0.6875,-8.5,-0.3125
2037,0.071044921875,0.2724609375,0.77001953125,-4.375,-4.1875,0.75
2039,0.071044921875,0.2724609375,0.77001953125,-4.375,-4.1875,0.75
2041,0.05810546875,0.282470703125,0.765625,-12.4375,1.5625,1.875
2043,0.05810546875,0.282470703125,0.765625,-12.4375,1.5625,1.875
2045,0.031494140625,0.28857421875,0.7783203125,-21.125,6.625,2.25
2047,0.031494140625,0.28857421875,0.7783203125,-21.125,6.625,2.25
2049,0.001220703125,0.28662109375,0.80810546875,-28,10.5625,1.4375
2051,0.001220703125,0.28662109375,0.80810546875,-28,10.5625,1.4375
2053,-0.022705078125,0.27783203125,0.849365234375,-32.5625,13.375,-0.3125
2055,-0.022705078125,0.27783203125,0.849365234375,-32.5625,13.375,-0.3125
2058,-0.04150390625,0.269287109375,0.894775390625,-34.4375,14.625,-2.1875
2060,-0.04150390625,0.269287109375,0.894775390625,-34.4375,14.625,-2.1875
2062,-0.05859375,0.266357421875,0.943603515625,-32.875,14.25,-3.0625
2064,-0.05859375,0.266357421875,0.943603515625,-32.875,14.25,-3.0625
2067,-0.072509765625,0.2685546875,0.99462890625,-27.9375,12.625,-3.6875
2069,-0.072509765625,0.2685546875,0.99462890625,-27.9375,12.625,-3.6875
2071,-0.072509765625,0.275634765625,1.060302734375,-21,9.75,-4.3125
2073,-0.093505859375,0.275634765625,1.060302734375,-21,9.75,-4.3125
2075,-0.093505859375,0.275634765625,1.060302734375,-21,9.75,-4.3125
2076,-0.119873046875,0.287353515625,1.141357421875,-14.5,6.6875,-4
2078,-0.119873046875,0.287353515625,1.141357421875,-14.5,6.6875,-4
2080,-0.15087890625,0.296875,1.22265625,-10.25,3.25,-2.625
2082,-0.15087890625,0.296875,1.22265625,-10.25,3.25,-2.625
2084,-0.19970703125,0.28955078125,1.301513671875,-8.1875,-0.3125,0.25
2087,-0.19970703125,0.28955078125,1.301513671875,-8.1875,-0.3125,0.25
2089,-0.21044921875,0.2724609375,1.37060546875,-8.6875,-3.875,5
2092,-0.21044921875,0.2724609375,1.37060546875,-8.6875,-3.875,5
2095,-0.23291015625,0.248291015625,1.451416015625,-11.4375,-7.8125,9.5625
2097,-0.23291015625,0.248291015625,1.451416015625,-11.4375,-7.8125,9.5625
2099,-0.294677734375,0.22412109375,1.541259765625,-16.375,-11.0625,13.625
2101,-0.294677734375,0.22412109375,1.541259765625,-16.375,-11.0625,13.625
2103,-0.36279296875,0.203369140625,1.63037109375,-25,-13.5625,17.125
2105,-0.36279296875,0.203369140625,1.63037109375,-25,-13.5625,17.125
2107,-0.431884765625,0.18408203125,1.70947265625,-36.5,-16.625,20.0625
2109,-0.431884765625,0.18408203125,1.70947265625,-36.5,-16.625,20.0625
2111,-0.490966796875,0.1572265625,1.7802734375,-49.125,-20.4375,23.0625
2113,-0.490966796875,0.1572265625,1.7802734375,-49.125,-20.4375,23.0625
2115,-0.54638671875,0.125,1.84130859375,-61.375,-25,25.75
2118,-0.54638671875,0.125,1.84130859375,-61.375,-25,25.75
2119,-0.620361328125,0.0927734375,1.8896484375,-72.4375,-30.0625,28.0625
2121,-0.620361328125,0.0927734375,1.8896484375,-72.4375,-30.0625,28.0625
2123,-0.620361328125,0.0927734375,1.8896484375,-72.4375,-30.0625,28.0625
2125,-0.71923828125,0.069091796875,1.91845703125,-80.875,-36.5,29.25
2127,-0.71923828125,0.069091796875,1.91845703125,-80.875,-36.5,29.25
2129,-0.827392578125,0.050048828125,1.9287109375,-86.625,-45.0625,30
2131,-0.827392578125,0.050048828125,1.9287109375,-86.625,-45.0625,30
2133,-0.94091796875,0.032470703125,1.91796875,-88.375,-56.5625,30.625
2135,-0.94091796875,0.032470703125,1.91796875,-88.375,-56.5625,30.625
2138,-1.048828125,0.01318359375,1.875,-84.6875,-67.125,30.75
2139,-1.048828125,0.01318359375,1.875,-84.6875,-67.125,30.75
2141,-1.128662109375,-0.017822265625,1.80419921875,-76.375,-70.9375,31.0625
2143,-1.128662109375,-0.017822265625,1.80419921875,-76.375,-70.9375,31.0625
2145,-1.128662109375,-0.017822265625,1.80419921875,-76.375,-70.9375,31.0625
2147,-1.20361328125,-0.04931640625,1.7685546875,-65.75,-71.1875,30.75
2149,-1.20361328125,-0.04931640625,1.7685546875,-65.75,-71.1875,30.75
2151,-1.296142578125,-0.05322265625,1.768798828125,-53.8125,-73.375,30.3125
2153,-1.296142578125,-0.05322265625,1.768798828125,-53.8125,-73.375,30.3125
2155,-1.394287109375,-0.037109375,1.80810546875,-40.75,-73.5,29.625
2157,-1.394287109375,-0.037109375,1.80810546875,-40.75,-73.5,29.625
2160,-1.464111328125,-0.012451171875,1.854736328125,-28.5,-71.9375,28.9375
2162,-1.464111328125,-0.012451171875,1.854736328125,-28.5,-71.9375,28.9375
2166,-1.51611328125,0.004150390625,1.890380859375,-17.625,-70.0625,28.125
2168,-1.51611328125,-0.058349609375,1.915771484375,-6.9375,-67.6875,28
2170,-1.58544921875,-0.009033203125,1.915771484375,-6.9375,-67.6875,28
2172,-1.58544921875,-0.009033203125,1.915771484375,-6.9375,-67.6875,28
2174,-1.6767578125,-0.03955078125,1.933349609375,2.6875,-64.6875,28.6875
2176,-1.6767578125,-0.03955078125,1.933349609375,2.6875,-64.6875,28.6875
2178,-1.758544921875,-0.039794921875,1.973388671875,9.5625,-61.0625,28.9375
2179,-1.758544921875,-0.039794921875,1.973388671875,9.5625,-61.0625,28.9375
2181,-1.805419921875,-0.007568359375,2.05615234375,11.625,-56.375,28
2184,-1.805419921875,-0.007568359375,2.05615234375,11.625,-56.375,28
2186,-1.8310546875,0.03173828125,2.16162109375,8.0625,-50.625,26.3125
2188,-1.8310546875,0.03173828125,2.16162109375,8.0625,-50.625,26.3125
2190,-1.8310546875,0.03173828125,2.16162109375,8.0625,-50.625,26.3125
2192,-1.86962890625,0.06787109375,2.263427734375,1.1875,-47.9375,25.1875
2194,-1.86962890625,0.06787109375,2.263427734375,1.1875,-47.9375,25.1875
2196,-1.928955078125,0.098388671875,2.36279296875,-7.0625,-51,25.375
2198,-1.928955078125,0.098388671875,2.36279296875,-7.0625,-51,25.375
2200,-1.99462890625,0.11767578125,2.446044921875,-16.375,-60,26.1875
2202,-1.99462890625,0.11767578125,2.446044921875,-16.375,-60,26.1875
2203,-1.99462890625,0.18017578125,2.467529296875,-26.5,-73.6875,27.4375
2206,-2.04736328125,0.12744140625,2.467529296875,-26.5,-73.6875,27.4375
2208,-2.081787109375,0.1279296875,2.46630859375,-37,-90.5625,28.5
2210,-2.081787109375,0.1279296875,2.46630859375,-37,-90.5625,28.5
2212,-2.081787109375,0.1279296875,2.46630859375,-37,-90.5625,28.5
2214,-2.097900390625,0.10791015625,2.462890625,-46.5625,-109.6875,29.8125
2216,-2.097900390625,0.10791015625,2.462890625,-46.5625,-109.6875,29.8125
2218,-2.111083984375,0.078125,2.42138671875,-54.25,-129.75,31.625
2219,-2.111083984375,0.078125,2.42138671875,-54.25,-129.75,31.625
2221,-2.121337890625,0.05078125,2.33349609375,-59.75,-150.3125,34.3125
2223,-2.121337890625,0.05078125,2.33349609375,-59.75,-150.3125,34.3125
2225,-2.121337890625,0.05078125,2.33349609375,-59.75,-150.3125,34.3125
2228,-2.118896484375,0.02685546875,2.248046875,-62.75,-171.1875,38
2230,-2.118896484375,0.02685546875,2.248046875,-62.75,-171.1875,38
2232,-2.10498046875,0.008544921875,2.157470703125,-63.625,-192.1875,41.9375
2235,-2.0703125,-0.00927734375,2.051513671875,-62.6875,-211.9375,45.8125
2237,-2.0703125,-0.00927734375,2.051513671875,-62.6875,-211.9375,45.8125
2239,-2.016357421875,-0.034423828125,1.927001953125,-60.3125,-229.3125,49.9375
2241,-2.016357421875,-0.034423828125,1.927001953125,-60.3125,-229.3125,49.9375
2243,-2.016357421875,-0.034423828125,1.927001953125,-60.3125,-229.3125,49.9375
2245,-1.956298828125,-0.060302734375,1.7978515625,-56.9375,-242.8125,53.375
2247,-1.956298828125,-0.060302734375,1.7978515625,-56.9375,-242.8125,53.375
2249,-1.89501953125,-0.07861328125,1.682373046875,-52.5,-251.5625,55.375
2251,-1.89501953125,-0.07861328125,1.682373046875,-52.5,-251.5625,55.375
2253,-1.83056640625,-0.088623046875,1.58203125,-47.125,-256.0625,56.125
2255,-1.83056640625,-0.088623046875,1.58203125,-47.125,-256.0625,56.125
2257,-1.74951171875,-0.09521484375,1.494384765625,-40.75,-257.25,55.9375
2259,-1.74951171875,-0.09521484375,1.494384765625,-40.75,-257.25,55.9375
2263,-1.671142578125,-0.105712890625,1.424072265625,-33.3125,-255.5625,54.6875
2265,-1.671142578125,-0.105712890625,1.424072265625,-33.3125,-255.5625,54.6875
2267,-1.62939453125,-0.109375,1.36474609375,-25.3125,-250.875,53.1875
2269,-1.62939453125,-0.109375,1.36474609375,-25.3125,-250.875,53.1875
2271,-1.606201171875,-0.097900390625,1.304931640625,-18.4375,-243.6875,51.8125
2273,-1.606201171875,-0.097900390625,1.304931640625,-18.4375,-243.6875,51.8125
2276,-1.588623046875,-0.080078125,1.243408203125,-12.1875,-234.375,50
2278,-1.588623046875,-0.080078125,1.243408203125,-12.1875,-234.375,50
2279,-1.56787109375,-0.067138671875,1.189697265625,-6.375,-223.875,47.9375
2281,-1.56787109375,-0.067138671875,1.189697265625,-6.375,-223.875,47.9375
2283,-1.559326171875,-0.0712890625,1.1513671875,-3.375,-212,45.75
2285,-1.559326171875,-0.0712890625,1.1513671875,-3.375,-212,45.75
2287,-1.559326171875,-0.0712890625,1.1513671875,-3.375,-212,45.75
2290,-1.5810546875,-0.10693359375,1.128662109375,-4.4375,-199.5,41.5
2292,-1.5810546875,-0.10693359375,1.128662109375,-4.4375,-199.5,41.5
2293,-1.62255859375,-0.166748046875,1.113037109375,-9.5,-186.9375,32.1875
2295,-1.62255859375,-0.166748046875,1.113037109375,-9.5,-186.9375,32.1875
2298,-1.659423828125,-0.21240234375,1.115966796875,-17.5625,-177.1875,16.9375
2300,-1.659423828125,-0.21240234375,1.115966796875,-17.5625,-177.1875,16.9375
2302,-1.6796875,-0.218017578125,1.15966796875,-28.5625,-170.625,-2.6875
2304,-1.6796875,-0.218017578125,1.15966796875,-28.5625,-170.625,-2.6875
2306,-1.679931640625,-0.19091796875,1.23095703125,-40,-167.1875,-23.8125
2308,-1.679931640625,-0.19091796875,1.23095703125,-40,-167.1875,-23.8125
2310,-1.679931640625,-0.12841796875,1.304443359375,-49.8125,-166.9375,-44.1875
2312,-1.655517578125,-0.138427734375,1.304443359375,-49.8125,-166.9375,-44.1875
2314,-1.655517578125,-0.138427734375,1.304443359375,-49.8125,-166.9375,-44.1875
2315,-1.620361328125,-0.0712890625,1.354736328125,-58.5,-170.0625,-61.125
2317,-1.620361328125,-0.0712890625,1.354736328125,-58.5,-170.0625,-61.125
2320,-1.62646484375,-0.0400390625,1.33740234375,-69.625,-176.25,-71.375
2322,-1.62646484375,-0.0400390625,1.33740234375,-69.625,-176.25,-71.375
2324,-1.666015625,-0.033203125,1.26611328125,-86.4375,-189.5625,-70.5
2326,-1.666015625,-0.033203125,1.26611328125,-86.4375,-189.5625,-70.5
2328,-1.55078125,0.0615234375,1.35888671875,-98.1875,-210.875,-65.5625
2331,-1.55078125,0.0615234375,1.35888671875,-98.1875,-210.875,-65.5625
2334,-1.357666015625,0.142333984375,1.3505859375,-98.5,-204.8125,-57.875
2336,-1.357666015625,0.142333984375,1.3505859375,-98.5,-204.8125,-57.875
2340,-1.281494140625,-0.064453125,1.2724609375,-98.75,-199.4375,-111.875
2342,-1.301025390625,-0.24169921875,1.12890625,-102.4375,-196.25,-170.8125
2344,-1.301025390625,-0.24169921875,1.12890625,-102.4375,-196.25,-170.8125
2346,-1.275390625,-0.387939453125,0.963134765625,-116.375,-174.3125,-182
2348,-1.275390625,-0.387939453125,0.963134765625,-116.375,-174.3125,-182
2350,-1.28076171875,-0.444091796875,0.74609375,-126.4375,-147.8125,-164.5625
2352,-1.28076171875,-0.444091796875,0.74609375,-126.4375,-147.8125,-164.5625
2354,-1.28076171875,-0.444091796875,0.74609375,-126.4375,-147.8125,-164.5625
2356,-1.30615234375,-0.33984375,0.5361328125,-118.1875,-123.625,-131.25
2358,-1.30615234375,-0.33984375,0.5361328125,-118.1875,-123.625,-131.25
2360,-1.269775390625,-0.186279296875,0.45947265625,-98.1875,-102.9375,-87.875
2362,-1.269775390625,-0.186279296875,0.45947265625,-98.1875,-102.9375,-87.875
2364,-1.176513671875,-0.070068359375,0.43115234375,-74.625,-96.625,-53.3125
2366,-1.176513671875,-0.070068359375,0.43115234375,-74.625,-96.625,-53.3125
2368,-1.109619140625,-0.01416015625,0.4052734375,-48.875,-105,-36
2370,-1.109619140625,-0.01416015625,0.4052734375,-48.875,-105,-36
2372,-1.078125,-0.017333984375,0.376708984375,-23.75,-120.875,-31.625
2374,-1.078125,-0.017333984375,0.376708984375,-23.75,-120.875,-31.625
2376,-1.078125,-0.017333984375,0.376708984375,-23.75,-120.875,-31.625
2378,-1.0625,-0.037841796875,0.33203125,-3.6875,-141.25,-30.25
2379,-1.0625,-0.037841796875,0.33203125,-3.6875,-141.25,-30.25
2381,-1.057861328125,-0.03759765625,0.287841796875,12.0625,-164.4375,-26.5625
2383,-1.057861328125,-0.03759765625,0.287841796875,12.0625,-164.4375,-26.5625
2385,-1.054931640625,-0.015380859375,0.2490234375,23,-191.125,-21.6875
2387,-1.054931640625,-0.015380859375,0.2490234375,23,-191.125,-21.6875
2390,-1.042724609375,0.01025390625,0.220458984375,30.0625,-215.625,-18.0625
2392,-1.042724609375,0.01025390625,0.220458984375,30.0625,-215.625,-18.0625
2394,-1.042724609375,0.01025390625,0.220458984375,30.0625,-215.625,-18.0625
2396,-1.01025390625,0.0322265625,0.208740234375,32.75,-233.5625,-20.25
2397,-1.01025390625,0.0322265625,0.208740234375,32.75,-233.5625,-20.25
2399,-0.968994140625,0.0546875,0.1943359375,32.5625,-242.9375,-27.6875
2401,-0.968994140625,0.0546875,0.1943359375,32.5625,-242.9375,-27.6875
2403,-0.92578125,0.080078125,0.163330078125,29.625,-244,-35
2405,-0.92578125,0.080078125,0.163330078125,29.625,-244,-35
2407,-0.92578125,0.080078125,0.163330078125,29.625,-239.125,-40.125
2409,-0.88916015625,0.1201171875,0.125732421875,23.6875,-239.125,-40.125
2412,-0.88916015625,0.1201171875,0.083740234375,16,-230.9375,-44.5
2414,-0.8623046875,0.17431640625,0.083740234375,16,-230.9375,-44.5
2415,-0.8623046875,0.17431640625,0.083740234375,16,-230.9375,-44.5
2417,-0.830322265625,0.243408203125,0.046142578125,6.9375,-221.3125,-49.875
2419,-0.830322265625,0.243408203125,0.046142578125,6.9375,-221.3125,-49.875
2421,-0.779052734375,0.31494140625,0.0263671875,-4.25,-211.75,-56.3125
2423,-0.779052734375,0.31494140625,0.0263671875,-4.25,-211.75,-56.3125
2425,-0.7216796875,0.384521484375,0.00634765625,-17.5625,-203,-61.875
2427,-0.7216796875,0.384521484375,0.00634765625,-17.5625,-203,-61.875
2429,-0.7216796875,0.384521484375,0.00634765625,-17.5625,-203,-61.875
2431,-0.678466796875,0.442138671875,-0.0224609375,-32.625,-195.625,-65.125
2433,-0.678466796875,0.442138671875,-0.0224609375,-32.625,-195.625,-65.125
2435,-0.646484375,0.474853515625,-0.04638671875,-47.3125,-188.8125,-65.375
2437,-0.646484375,0.474853515625,-0.04638671875,-47.3125,-188.8125,-65.375
2439,-0.61865234375,0.475830078125,-0.05322265625,-59,-181.9375,-64.0625
2441,-0.61865234375,0.475830078125,-0.05322265625,-59,-181.9375,-64.0625
2443,-0.59765625,0.45263671875,-0.035888671875,-65.9375,-174.9375,-62.375
2445,-0.59765625,0.45263671875,-0.035888671875,-65.9375,-174.9375,-62.375
2447,-0.59765625,0.39013671875,-0.015869140625,-66.0625,-169.8125,-60.0625
2449,-0.587646484375,0.415283203125,-0.015869140625,-66.0625,-169.8125,-60.0625
2451,-0.587646484375,0.415283203125,-0.015869140625,-66.0625,-169.8125,-60.0625
2453,-0.58203125,0.385009765625,-0.01513671875,-60.5,-167.25,-56.375
2455,-0.58203125,0.385009765625,-0.01513671875,-60.5,-167.25,-56.375
2457,-0.587890625,0.373046875,-0.034912109375,-52.375,-165.9375,-51.5625
2459,-0.587890625,0.373046875,-0.034912109375,-52.375,-165.9375,-51.5625
2461,-0.601806640625,0.368896484375,-0.060302734375,-43.25,-164.5,-45.4375
2463,-0.601806640625,0.368896484375,-0.060302734375,-43.25,-164.5,-45.4375
2465,-0.612548828125,0.35595703125,-0.0751953125,-32.125,-162.0625,-38.625
2468,-0.612548828125,0.35595703125,-0.0751953125,-32.125,-162.0625,-38.625
2470,-0.6201171875,0.325927734375,-0.07666015625,-17.875,-159.4375,-31.1875
2472,-0.6201171875,0.325927734375,-0.07666015625,-17.875,-159.4375,-31.1875
2474,-0.611328125,0.297119140625,-0.067626953125,-1.1875,-156.3125,-22.75
2476,-0.611328125,0.297119140625,-0.067626953125,-1.1875,-156.3125,-22.75
2479,-0.570068359375,0.272705078125,-0.060302734375,15,-151.8125,-13.5625
2481,-0.570068359375,0.272705078125,-0.060302734375,15,-151.8125,-13.5625
2483,-0.520263671875,0.25732421875,-0.063720703125,28.8125,-144.8125,-4.6875
2485,-0.520263671875,0.25732421875,-0.063720703125,28.8125,-144.8125,-4.6875
2487,-0.520263671875,0.25732421875,-0.063720703125,28.8125,-144.8125,-4.6875
2489,-0.479736328125,0.244384765625,-0.07275390625,39.4375,-135.0625,2.6875
2491,-0.479736328125,0.244384765625,-0.07275390625,39.4375,-135.0625,2.6875
2493,-0.4521484375,0.224609375,-0.0771484375,48.125,-124.0625,7.75
2495,-0.4521484375,0.224609375,-0.0771484375,48.125,-124.0625,7.75
2497,-0.433837890625,0.20654296875,-0.06005859375,55.5,-112.9375,10.25
2499,-0.433837890625,0.20654296875,-0.06005859375,55.5,-112.9375,10.25
2508,-0.3505859375,0.138916015625,-0.0146484375,64.875,-95.4375,10.1875
2509,-0.3505859375,0.138916015625,-0.0146484375,64.875,-95.4375,10.1875
2511,-0.31298828125,0.126220703125,0.021484375,66.9375,-89.875,8.5625
2513,-0.31298828125,0.126220703125,0.021484375,66.9375,-89.875,8.5625
2516,-0.273193359375,0.140380859375,0.063720703125,65.875,-85.625,4.875
2519,-0.273193359375,0.140380859375,0.063720703125,65.875,-85.625,4.875
2521,-0.21923828125,0.172119140625,0.093017578125,61.125,-81.5,1.375
2523,-0.16015625,0.204833984375,0.105712890625,52.8125,-77.125,-1.4375
2525,-0.16015625,0.204833984375,0.105712890625,52.8125,-77.125,-1.4375
2528,-0.10791015625,0.228759765625,0.111328125,41.25,-73.625,-3.5625
2531,-0.10791015625,0.228759765625,0.111328125,41.25,-73.625,-3.5625
2533,-0.0703125,0.23681640625,0.114501953125,26.9375,-72.0625,-5.25
2536,-0.0703125,0.23681640625,0.12451171875,11.375,-71.5,-5.9375
2541,-0.04736328125,0.224609375,0.12451171875,11.375,-71.5,-5.9375
2542,-0.02978515625,0.203125,0.137939453125,-3.125,-71.3125,-4.8125
2545,-0.02978515625,0.172607421875,0.138427734375,-13.8125,-69.6875,-2.6875
2546,-0.010498046875,0.172607421875,0.138427734375,-13.8125,-69.6875,-2.6875
2550,-0.010498046875,0.172607421875,0.138427734375,-13.8125,-69.6875,-2.6875
2552,0.005126953125,0.143310546875,0.130615234375,-19.8125,-67.1875,-2.5625
2554,0.01611328125,0.109619140625,0.118896484375,-22.5,-65.3125,-2.9375
2556,0.01611328125,0.109619140625,0.118896484375,-22.5,-65.3125,-2.9375
2559,0.01611328125,0.109619140625,0.118896484375,-22.5,-65.3125,-2.9375
2562,0.0166015625,0.063720703125,0.1201171875,-22.375,-63.25,-1.6875
2564,0.021728515625,0.013671875,0.128173828125,-18.75,-60.5625,1.375
2568,0.021728515625,0.013671875,0.128173828125,-18.75,-60.5625,1.375
2570,0.041015625,-0.02587890625,0.142578125,-12.125,-58.4375,4.75
2572,0.06494140625,-0.053466796875,0.1640625,-3.6875,-56.6875,7.25
2574,0.06494140625,-0.053466796875,0.1640625,-3.6875,-56.6875,7.25
2577,0.094970703125,-0.07177734375,0.1875,5.0625,-54.5,7.125
2580,0.094970703125,-0.07177734375,0.1875,5.0625,-54.5,7.125
2582,0.13134765625,-0.068359375,0.20654296875,12.375,-52.0625,5.0625
2584,0.13134765625,-0.068359375,0.20654296875,12.375,-52.0625,5.0625
2586,0.167724609375,-0.046875,0.215087890625,17,-49.6875,1.6875
2588,0.167724609375,-0.046875,0.215087890625,17,-49.6875,1.6875
2593,0.196044921875,-0.021484375,0.220947265625,18.25,-43,-4.875
2595,0.231201171875,-0.001220703125,0.225830078125,16.4375,-43,-4.875
2597,0.231201171875,-0.001220703125,0.225830078125,16.4375,-43,-4.875
2601,0.273681640625,0.011474609375,0.23388671875,12.1875,-38.9375,-8.1875
2603,0.3173828125,0.023681640625,0.24267578125,7.1875,-34,-11.25
2605,0.3173828125,0.023681640625,0.24267578125,7.1875,-34,-11.25
2607,0.35009765625,0.03564453125,0.25439453125,2.375,-28,-13.1875
2609,0.35009765625,0.03564453125,0.25439453125,2.375,-28,-13.1875
2613,0.35009765625,0.03564453125,0.25439453125,-1.9375,-21.5,-13.9375
2615,0.364501953125,0.04638671875,0.265625,-1.9375,-21.5,-13.9375
2617,0.369140625,0.052978515625,0.272705078125,-5.3125,-15.4375,-13.875
2619,0.369140625,0.052978515625,0.272705078125,-5.3125,-15.4375,-13.875
2621,0.3671875,0.0498046875,0.281494140625,-7.75,-10.125,-12.75
2623,0.3671875,0.0498046875,0.281494140625,-7.75,-10.125,-12.75
2625,0.357421875,0.03759765625,0.2861328125,-8.75,-4.4375,-10
2627,0.357421875,0.03759765625,0.2861328125,-8.75,-4.4375,-10
2629,0.33935546875,0.013671875,0.2861328125,-8.125,0.6875,-6.0625
2631,0.33935546875,0.013671875,0.2861328125,-8.125,0.6875,-6.0625
2633,0.33935546875,0.013671875,0.2861328125,-8.125,0.6875,-1.5
2635,0.318115234375,-0.018798828125,0.284423828125,-5.375,5.3125,-1.5
2637,0.318115234375,-0.018798828125,0.284423828125,-5.375,5.3125,-1.5
2639,0.294677734375,-0.060791015625,0.2841796875,-0.0625,9.4375,3.0625
2641,0.294677734375,-0.060791015625,0.2841796875,-0.0625,9.4375,3.0625
2643,0.271484375,-0.114990234375,0.286376953125,7.125,13.1875,7.875
2645,0.271484375,-0.114990234375,0.286376953125,7.125,13.1875,7.875
2647,0.2451171875,-0.163818359375,0.28955078125,15.625,16.875,11.625
2649,0.2451171875,-0.163818359375,0.28955078125,15.625,16.875,11.625
2651,0.215087890625,-0.201416015625,0.298095703125,24.3125,19.6875,13.5625
2653,0.215087890625,-0.201416015625,0.298095703125,24.3125,19.6875,13.5625
2655,0.215087890625,-0.201416015625,0.298095703125,24.3125,19.6875,13.5625
2657,0.188232421875,-0.22998046875,0.3037109375,32.1875,21.6875,13.625
2659,0.188232421875,-0.22998046875,0.3037109375,32.1875,21.6875,13.625
2661,0.17236328125,-0.24658203125,0.3125,39,23.1875,12.4375
2662,0.17236328125,-0.24658203125,0.3125,39,23.1875,12.4375
2664,0.16455078125,-0.252197265625,0.3232421875,43.5,24.5625,10.5625
2667,0.16455078125,-0.252197265625,0.3232421875,43.5,24.5625,10.5625
2669,0.153076171875,-0.246826171875,0.330322265625,45.3125,26,7.8125
2671,0.153076171875,-0.246826171875,0.330322265625,45.3125,26,7.8125
2673,0.153076171875,-0.246826171875,0.330322265625,45.3125,26,7.8125
2675,0.138427734375,-0.232421875,0.336181640625,44.8125,28,4.125
2676,0.138427734375,-0.232421875,0.336181640625,44.8125,28,4.125
2678,0.11865234375,-0.21337890625,0.340576171875,43,30.5,-0.3125
2680,0.11865234375,-0.21337890625,0.340576171875,43,30.5,-0.3125
2682,0.096435546875,-0.19091796875,0.340576171875,40.375,33.3125,-4.8125
2684,0.096435546875,-0.19091796875,0.340576171875,40.375,33.3125,-4.8125
2686,0.096435546875,-0.19091796875,0.340576171875,38.0625,35.9375,-9.1875
2688,0.073974609375,-0.16845703125,0.34033203125,38.0625,35.9375,-9.1875
2690,0.073974609375,-0.16845703125,0.34033203125,38.0625,35.9375,-9.1875
2692,0.056396484375,-0.14404296875,0.340576171875,36.375,37.4375,-13.4375
2694,0.056396484375,-0.14404296875,0.340576171875,36.375,37.4375,-13.4375
2696,0.052001953125,-0.1162109375,0.337646484375,35.3125,38.25,-17.5625
2698,0.052001953125,-0.1162109375,0.337646484375,35.3125,38.25,-17.5625
2700,0.0556640625,-0.076171875,0.325927734375,34.5,38.5625,-21.5625
2702,0.0556640625,-0.076171875,0.325927734375,34.5,38.5625,-21.5625
2704,0.0693359375,-0.032470703125,0.306884765625,33.75,39.5625,-25.5
2706,0.0693359375,-0.032470703125,0.306884765625,33.75,39.5625,-25.5
2708,0.0693359375,-0.032470703125,0.306884765625,33.75,39.5625,-25.5
2711,0.083984375,0.005859375,0.289306640625,31.5625,40.9375,-27.6875
2713,0.081787109375,0.047119140625,0.2744140625,28.1875,43.25,-28.5625
2715,0.081787109375,0.047119140625,0.2744140625,28.1875,43.25,-28.5625
2717,0.081787109375,0.047119140625,0.2744140625,28.1875,43.25,-28.875
2720,0.068603515625,0.093017578125,0.264404296875,24.6875,46.75,-28.875
2721,0.068603515625,0.093017578125,0.264404296875,24.6875,46.75,-28.875
2723,0.081787109375,0.150390625,0.2900390625,23.375,51.5,-28.8125
2725,0.081787109375,0.150390625,0.2900390625,23.375,51.5,-28.8125
2727,0.07958984375,0.186279296875,0.238037109375,21.375,56.9375,-28.125
2729,0.07958984375,0.186279296875,0.238037109375,21.375,56.9375,-28.125
2731,0.06396484375,0.201416015625,0.162109375,9.375,59.8125,-23.625
2734,0.06396484375,0.201416015625,0.162109375,9.375,59.8125,-23.625
2736,0.048828125,0.188232421875,0.175048828125,2.375,64.3125,-19.8125
2737,0.048828125,0.188232421875,0.175048828125,2.375,64.3125,-19.8125
2739,0.048828125,0.164794921875,0.169677734375,-0.5,70.1875,-16.875
2741,0.012451171875,0.164794921875,0.169677734375,-0.5,70.1875,-16.875
2743,0.012451171875,0.164794921875,0.169677734375,-0.5,70.1875,-16.875
2745,-0.026123046875,0.156494140625,0.153564453125,-2.3125,75.5,-13.125
2747,-0.026123046875,0.156494140625,0.153564453125,-2.3125,75.5,-13.125
2749,-0.064697265625,0.1435546875,0.126953125,-2.5625,79.375,-9.0625
2751,-0.064697265625,0.1435546875,0.126953125,-2.5625,79.375,-9.0625
2753,-0.10302734375,0.12939453125,0.097900390625,-2.1875,82.25,-5.3125
2755,-0.10302734375,0.12939453125,0.097900390625,-2.1875,82.25,-5.3125
2757,-0.144775390625,0.105712890625,0.0732421875,-1.5,84.25,-1.3125
2759,-0.144775390625,0.105712890625,0.0732421875,-1.5,84.25,-1.3125
2761,-0.144775390625,0.105712890625,0.0732421875,-1.5,84.25,-1.3125
2763,-0.179443359375,0.07666015625,0.04931640625,-0.3125,85.25,2.625
2765,-0.179443359375,0.07666015625,0.04931640625,-0.3125,85.25,2.625
2767,-0.224365234375,0.049560546875,0.038330078125,1.75,85.9375,6
2769,-0.224365234375,0.049560546875,0.038330078125,1.75,85.9375,6
2771,-0.27978515625,0.030029296875,0.036865234375,5.8125,86.75,8.375
2773,-0.27978515625,0.030029296875,0.036865234375,5.8125,86.75,8.375
2775,-0.27978515625,0.030029296875,0.036865234375,10.8125,86.625,10.125
2777,-0.326416015625,0.0234375,0.03759765625,10.8125,86.625,10.125
2779,-0.326416015625,0.0234375,0.03759765625,10.8125,86.625,10.125
2781,-0.3623046875,0.0283203125,0.034912109375,15.9375,85.25,10.9375
2783,-0.3623046875,0.0283203125,0.034912109375,15.9375,85.25,10.9375
2785,-0.392822265625,0.043701171875,0.03076171875,20.5,83,11.3125
2787,-0.392822265625,0.043701171875,0.03076171875,20.5,83,11.3125
2789,-0.41650390625,0.063720703125,0.03271484375,24.125,80.25,10.9375
2791,-0.41650390625,0.063720703125,0.03271484375,24.125,80.25,10.9375
2793,-0.443603515625,0.087158203125,0.03466796875,27.375,76.9375,10.125
2795,-0.443603515625,0.087158203125,0.03466796875,27.375,76.9375,10.125
2797,-0.443603515625,0.087158203125,0.03466796875,27.375,76.9375,10.125
2799,-0.4794921875,0.125732421875,0.02978515625,31,72.75,9.25
2801,-0.4794921875,0.125732421875,0.02978515625,31,72.75,9.25
2803,-0.464111328125,0.16552734375,0.03369140625,31.625,69.0625,8.3125
2805,-0.464111328125,0.16552734375,0.03369140625,31.625,69.0625,8.3125
2807,-0.463134765625,0.208984375,0.053466796875,30.5625,66.0625,6.75
2809,-0.463134765625,0.208984375,0.053466796875,30.5625,66.0625,6.75
2811,-0.48828125,0.260986328125,0.074462890625,28.6875,64.5,5.9375
2813,-0.48828125,0.260986328125,0.074462890625,28.6875,64.5,5.9375
2815,-0.48828125,0.260986328125,0.074462890625,28.6875,64.125,6.1875
2817,-0.5048828125,0.306396484375,0.10302734375,24.625,64.125,6.1875
2818,-0.5048828125,0.306396484375,0.10302734375,24.625,64.125,6.1875
2821,-0.521240234375,0.333740234375,0.136962890625,20.375,63.9375,7.625
2823,-0.521240234375,0.333740234375,0.136962890625,20.375,63.9375,7.625
2825,-0.55078125,0.3505859375,0.17138671875,18.125,63.625,10.875
2827,-0.55078125,0.3505859375,0.17138671875,18.125,63.625,10.875
2829,-0.587646484375,0.365478515625,0.216796875,18.4375,63.4375,15.875
2831,-0.587646484375,0.365478515625,0.216796875,18.4375,63.4375,15.875
2833,-0.61328125,0.373291015625,0.2734375,20.1875,63.9375,22.1875
2834,-0.61328125,0.373291015625,0.2734375,20.1875,63.9375,22.1875
2836,-0.61328125,0.373291015625,0.2734375,20.1875,63.9375,22.1875
2838,-0.639892578125,0.379150390625,0.325927734375,23,65.875,29.0625
2840,-0.639892578125,0.379150390625,0.325927734375,23,65.875,29.0625
2842,-0.684326171875,0.3818359375,0.370849609375,27,68.4375,35.4375
2845,-0.684326171875,0.3818359375,0.370849609375,27,68.4375,35.4375
2847,-0.740478515625,0.374755859375,0.41162109375,31.25,71.0625,41.3125
2848,-0.740478515625,0.374755859375,0.41162109375,31.25,71.0625,41.3125
2850,-0.79296875,0.354736328125,0.46142578125,35.3125,73.3125,46.8125
2852,-0.79296875,0.354736328125,0.46142578125,35.3125,73.3125,46.8125
2854,-0.79296875,0.354736328125,0.46142578125,35.3125,73.3125,46.8125
2856,-0.83349609375,0.33154296875,0.528564453125,39.6875,74.5625,51.375
2858,-0.83349609375,0.33154296875,0.528564453125,39.6875,74.5625,51.375
2860,-0.878662109375,0.30908203125,0.60546875,45.125,74.875,54.8125
2862,-0.878662109375,0.30908203125,0.60546875,45.125,74.875,54.8125
2864,-0.909912109375,0.29833984375,0.66455078125,51.625,73.5,58.6875
2866,-0.909912109375,0.29833984375,0.66455078125,51.625,73.5,58.6875
2868,-0.925537109375,0.197021484375,0.716796875,57.125,79.25,50.8125
2870,-0.925537109375,0.197021484375,0.716796875,57.125,79.25,50.8125
2872,-0.925537109375,0.197021484375,0.716796875,57.125,79.25,37.5625
2874,-0.961669921875,0.162353515625,0.768310546875,69.8125,72.4375,37.5625
2876,-0.961669921875,0.162353515625,0.768310546875,69.8125,72.4375,37.5625
2878,-1.031494140625,0.263671875,0.782470703125,86.1875,74,61.8125
2880,-1.031494140625,0.263671875,0.782470703125,86.1875,74,61.8125
2882,-1.0322265625,0.328369140625,0.7958984375,90.3125,70.375,90.5
2884,-1.0322265625,0.328369140625,0.7958984375,90.3125,70.375,90.5
2885,-1.0322265625,0.328369140625,0.7958984375,90.3125,54.0625,99.3125
2888,-0.948486328125,0.339599609375,0.83203125,95.5625,54.0625,99.3125
2890,-0.948486328125,0.339599609375,0.83203125,95.5625,54.0625,99.3125
2892,-0.860107421875,0.3125,0.93896484375,104.0625,34.0625,87
2894,-0.860107421875,0.3125,0.93896484375,104.0625,34.0625,87
2895,-0.818359375,0.293701171875,1.036865234375,103.4375,19.375,64.125
2897,-0.818359375,0.293701171875,1.036865234375,103.4375,19.375,64.125
2899,-0.841796875,0.310546875,1.09521484375,90.375,13.0625,45.4375
2901,-0.841796875,0.310546875,1.09521484375,90.375,13.0625,45.4375
2903,-0.841796875,0.373046875,1.079345703125,67.25,8.9375,34
2905,-0.8984375,0.327392578125,1.079345703125,67.25,8.9375,34
2907,-0.8984375,0.327392578125,1.079345703125,67.25,8.9375,34
2909,-0.914794921875,0.306640625,1.039794921875,39,3.1875,26.5625
2911,-0.914794921875,0.306640625,1.039794921875,39,3.1875,26.5625
2913,-0.880859375,0.251220703125,1.06201171875,18.8125,1.8125,20.6875
2915,-0.880859375,0.251220703125,1.06201171875,18.8125,1.8125,20.6875
2917,-0.85107421875,0.217529296875,1.076416015625,7.375,7.3125,16.5625
2920,-0.85107421875,0.217529296875,1.076416015625,7.375,7.3125,16.5625
2922,-0.848876953125,0.23828125,1.052978515625,-2.75,15.5625,13.375
2924,-0.848876953125,0.23828125,1.052978515625,-2.75,15.5625,13.375
2925,-0.857421875,0.3017578125,1.020751953125,-14.25,22.25,10.8125
2927,-0.857421875,0.3017578125,1.020751953125,-14.25,22.25,10.8125
2929,-0.857421875,0.3017578125,1.020751953125,-14.25,22.25,10.8125
2931,-0.857421875,0.368408203125,1.011474609375,-25.4375,28.6875,9.25
2934,-0.857421875,0.368408203125,1.011474609375,-25.4375,28.6875,9.25
2936,-0.851806640625,0.408203125,1.016845703125,-33.5625,37.0625,9.0625
2937,-0.851806640625,0.408203125,1.016845703125,-33.5625,37.0625,9.0625
2939,-0.84228515625,0.4287109375,1.037353515625,-33.6875,47.375,11
2941,-0.84228515625,0.4287109375,1.037353515625,-33.6875,47.375,11
2943,-0.77978515625,0.45703125,1.05517578125,-25.1875,57.25,14.125
2945,-0.810791015625,0.45703125,1.05517578125,-25.1875,57.25,14.125
2947,-0.810791015625,0.45703125,1.05517578125,-25.1875,57.25,14.125
2949,-0.77197265625,0.4990234375,1.07861328125,-12.75,65.875,17.4375
2951,-0.77197265625,0.4990234375,1.07861328125,-12.75,65.875,17.4375
2953,-0.726806640625,0.50830078125,1.11181640625,-1.5,75.8125,21.625
2955,-0.726806640625,0.50830078125,1.11181640625,-1.5,75.8125,21.625
2957,-0.68212890625,0.47119140625,1.1572265625,7.8125,87.25,27.625
2959,-0.68212890625,0.47119140625,1.1572265625,7.8125,87.25,27.625
2961,-0.65869140625,0.411376953125,1.218017578125,16.75,99.625,34.125
2963,-0.65869140625,0.411376953125,1.218017578125,16.75,99.625,34.125
2965,-0.65869140625,0.3642578125,1.2861328125,25.4375,111,39.375
2967,-0.64697265625,0.3642578125,1.2861328125,25.4375,111,39.375
2969,-0.64697265625,0.3642578125,1.2861328125,25.4375,111,39.375
2971,-0.651123046875,0.332763671875,1.34716796875,32.3125,120.1875,44.125
2973,-0.651123046875,0.332763671875,1.34716796875,32.3125,120.1875,44.125
2975,-0.658447265625,0.3046875,1.390625,36.0625,124.9375,48.4375
2978,-0.658447265625,0.3046875,1.390625,36.0625,124.9375,52.4375
2981,-0.644287109375,0.2490234375,1.41455078125,36.875,125.5625,52.4375
2983,-0.644287109375,0.2490234375,1.41455078125,36.875,125.5625,52.4375
2985,-0.6279296875,0.1591796875,1.427490234375,36.4375,127.0625,55.8125
2986,-0.6279296875,0.1591796875,1.427490234375,36.4375,127.0625,55.8125
2988,-0.609375,0.064453125,1.453857421875,36.0625,132.375,58.375
2990,-0.609375,0.064453125,1.453857421875,36.0625,132.375,58.375
2992,-0.5908203125,-0.00048828125,1.51220703125,35.25,142.8125,58.625
2994,-0.5908203125,-0.00048828125,1.51220703125,35.25,142.8125,58.625
2996,-0.5908203125,-0.029052734375,1.601806640625,34,156.0625,56.1875
2998,-0.58544921875,-0.029052734375,1.601806640625,34,156.0625,56.1875
3000,-0.58544921875,-0.029052734375,1.601806640625,34,156.0625,56.1875
3003,-0.60498046875,-0.03955078125,1.707275390625,32.375,170.0625,51
3005,-0.60498046875,-0.03955078125,1.707275390625,32.375,170.0625,51
3006,-0.64404296875,-0.0537109375,1.8037109375,32.625,182.875,43.375
3008,-0.64404296875,-0.0537109375,1.8037109375,32.625,182.875,43.375
3010,-0.6943359375,-0.068359375,1.889892578125,35.5625,192.0625,34.6875
3012,-0.6943359375,-0.068359375,1.889892578125,35.5625,192.0625,34.6875
3014,-0.758544921875,-0.07763671875,1.9658203125,41.125,197.5625,25.375
3016,-0.758544921875,-0.07763671875,1.9658203125,41.125,197.5625,25.375
3018,-0.758544921875,-0.07763671875,1.9658203125,41.125,197.5625,25.375
3020,-0.8046875,-0.072998046875,2.02978515625,47.5,200.875,14.4375
3022,-0.8046875,-0.072998046875,2.02978515625,47.5,200.875,14.4375
3024,-0.82080078125,-0.033935546875,2.0869140625,53.25,203.0625,2.3125
3026,-0.82080078125,-0.033935546875,2.0869140625,53.25,203.0625,2.3125
3028,-0.82373046875,0.033447265625,2.139892578125,57,204.625,-9.5
3030,-0.82373046875,0.033447265625,2.139892578125,57,204.625,-9.5
3032,-0.82470703125,0.117919921875,2.18310546875,57.0625,205.25,-19.25
3034,-0.82470703125,0.117919921875,2.18310546875,57.0625,205.25,-19.25
3036,-0.82470703125,0.117919921875,2.18310546875,57.0625,205.25,-19.25
3038,-0.820556640625,0.2001953125,2.216552734375,54.125,204.3125,-25.625
3040,-0.820556640625,0.2001953125,2.216552734375,54.125,204.3125,-25.625
3042,-0.827880859375,0.283447265625,2.241455078125,49.9375,201.1875,-27.125
3043,-0.827880859375,0.283447265625,2.241455078125,49.9375,201.1875,-27.125
3046,-0.828369140625,0.346923828125,2.26025390625,45.1875,194.875,-22.125
3048,-0.828369140625,0.346923828125,2.26025390625,45.1875,194.875,-22.125
3050,-0.7978515625,0.370849609375,2.27490234375,41,184.125,-19.875
3052,-0.7978515625,0.370849609375,2.27490234375,41,184.125,-19.875
3054,-0.7978515625,0.370849609375,2.27490234375,41,184.125,-19.875
3056,-0.765380859375,0.395751953125,2.2666015625,36.125,172.6875,-18
3058,-0.765380859375,0.395751953125,2.2666015625,36.125,172.6875,-18
3059,-0.77001953125,0.41552734375,2.2314453125,29.3125,161.75,-12.4375
3061,-0.77001953125,0.41552734375,2.2314453125,29.3125,161.75,-12.4375
3063,-0.7763671875,0.41064453125,2.1796875,21.8125,151.1875,-3.9375
3065,-0.7763671875,0.41064453125,2.1796875,21.8125,151.1875,-3.9375
3068,-0.7470703125,0.38818359375,2.11962890625,17.0625,141.9375,5.9375
3070,-0.7470703125,0.38818359375,2.11962890625,17.0625,141.9375,5.9375
3072,-0.7470703125,0.32568359375,2.0595703125,16.8125,137.0625,16.1875
3074,-0.68994140625,0.357177734375,2.0595703125,16.8125,137.0625,16.1875
3076,-0.68994140625,0.357177734375,2.0595703125,16.8125,137.0625,16.1875
3077,-0.640625,0.311279296875,2.013427734375,19.5625,137.25,25.375
3079,-0.640625,0.311279296875,2.013427734375,19.5625,137.25,25.375
3081,-0.62353515625,0.252685546875,1.981201171875,23.125,141.0625,32.375
3083,-0.62353515625,0.252685546875,1.981201171875,23.125,141.0625,32.375
3085,-0.625244140625,0.17236328125,1.969970703125,26.8125,147.9375,35.75
3087,-0.625244140625,0.17236328125,1.969970703125,26.8125,147.9375,35.75
3090,-0.620361328125,0.07080078125,1.973876953125,31.25,157.9375,35.5625
3092,-0.620361328125,0.07080078125,1.973876953125,31.25,157.9375,35.5625
3094,-0.620361328125,0.07080078125,1.973876953125,31.25,157.9375,35.5625
3095,-0.609619140625,-0.026611328125,1.99169921875,36.5,169.75,32.125
3097,-0.609619140625,-0.026611328125,1.99169921875,36.5,169.75,32.125
3099,-0.6103515625,-0.097412109375,2.033935546875,41.125,182.375,25.375
3101,-0.6103515625,-0.097412109375,2.033935546875,41.125,182.375,25.375
3103,-0.62890625,-0.13623046875,2.093017578125,43.375,194.6875,16.5625
3105,-0.62890625,-0.13623046875,2.093017578125,43.375,194.6875,16.5625
3107,-0.66943359375,-0.14599609375,2.157958984375,43.3125,203.875,6.6875
3109,-0.66943359375,-0.14599609375,2.157958984375,43.3125,203.875,6.6875
3112,-0.7060546875,-0.13330078125,2.21826171875,41.75,207.9375,-4.125
3114,-0.7060546875,-0.13330078125,2.21826171875,41.75,207.9375,-4.125
3115,-0.7060546875,-0.13330078125,2.21826171875,41.75,207.9375,-4.125
3118,-0.730224609375,-0.1015625,2.2685546875,39.8125,206.75,-15.25
3120,-0.730224609375,-0.1015625,2.2685546875,39.8125,206.75,-15.25
3122,-0.74658203125,-0.05517578125,2.30078125,38.25,201.625,-25.875
3124,-0.74658203125,-0.05517578125,2.30078125,38.25,201.625,-25.875
3126,-0.747802734375,-0.003662109375,2.313232421875,36.875,193.75,-34.8125
3128,-0.747802734375,-0.003662109375,2.313232421875,36.875,193.75,-34.8125
3129,-0.744140625,0.04541015625,2.296875,35.5625,183.5625,-39.9375
3131,-0.744140625,0.04541015625,2.296875,35.5625,183.5625,-39.9375
3134,-0.740234375,0.079345703125,2.261474609375,35.9375,171.25,-41.5625
3136,-0.740234375,0.079345703125,2.261474609375,35.9375,171.25,-41.5625
3138,-0.740234375,0.079345703125,2.261474609375,35.9375,171.25,-41.5625
3140,-0.72265625,0.099853515625,2.21484375,38.25,158,-41
3142,-0.72265625,0.099853515625,2.21484375,38.25,158,-41
3143,-0.695068359375,0.114501953125,2.167236328125,40.75,145.1875,-39
3145,-0.695068359375,0.114501953125,2.167236328125,40.75,145.1875,-39
3147,-0.66162109375,0.12353515625,2.113525390625,43,133.1875,-36.3125
3149,-0.66162109375,0.12353515625,2.113525390625,43,133.1875,-36.3125
3151,-0.66162109375,0.12353515625,2.113525390625,44.375,122.125,-34.3125
3153,-0.63330078125,0.12353515625,2.069091796875,44.375,122.125,-34.3125
3156,-0.63330078125,0.12353515625,2.069091796875,44.375,113.625,-31.875
3158,-0.6181640625,0.11083984375,2.027587890625,45.0625,113.625,-31.875
3159,-0.6181640625,0.11083984375,2.027587890625,45.0625,113.625,-31.875
3161,-0.603271484375,0.098388671875,1.979248046875,45.625,108.625,-28.9375
3163,-0.603271484375,0.098388671875,1.979248046875,45.625,108.625,-28.9375
3165,-0.57177734375,0.088623046875,1.9404296875,45.8125,106.1875,-26.6875
3167,-0.57177734375,0.088623046875,1.9404296875,45.8125,106.1875,-26.6875
3169,-0.529296875,0.070556640625,1.917236328125,46.125,104.6875,-27.6875
3171,-0.529296875,0.070556640625,1.917236328125,46.125,104.6875,-27.6875
3173,-0.529296875,0.070556640625,1.917236328125,46.125,104.6875,-27.6875
3175,-0.49609375,0.046875,1.9052734375,46.625,104.25,-32.375
3178,-0.49609375,0.046875,1.9052734375,46.625,104.25,-32.375
3180,-0.484130859375,0.0283203125,1.884033203125,46.5625,104.5625,-37.875
3182,-0.484130859375,0.0283203125,1.884033203125,46.5625,104.5625,-37.875
3183,-0.499755859375,0.019287109375,1.854736328125,45.8125,104.25,-41.125
3185,-0.499755859375,0.019287109375,1.854736328125,45.8125,104.25,-41.125
3187,-0.521728515625,0.019775390625,1.84130859375,44.625,101.0625,-41.875
3189,-0.521728515625,0.019775390625,1.84130859375,44.625,101.0625,-41.875
3191,-0.529052734375,0.04150390625,1.8564453125,44.125,91.75,-40.0625
3193,-0.529052734375,0.04150390625,1.8564453125,44.125,91.75,-40.0625
3195,-0.529052734375,0.04150390625,1.8564453125,44.125,91.75,-40.0625
3197,-0.5146484375,0.075927734375,1.85693359375,45.25,79.375,-36.75
3200,-0.5146484375,0.075927734375,1.85693359375,45.25,79.375,-36.75
3201,-0.477783203125,0.10400390625,1.84765625,45.875,68.375,-35.0625
3203,-0.477783203125,0.10400390625,1.84765625,45.875,68.375,-35.0625
3205,-0.435546875,0.113525390625,1.82568359375,44,58.0625,-35.875
3207,-0.435546875,0.113525390625,1.82568359375,44,58.0625,-35.875
3209,-0.416015625,0.102294921875,1.782470703125,40.25,48.625,-38.25
3211,-0.416015625,0.102294921875,1.782470703125,40.25,48.625,-38.25
3213,-0.416015625,0.102294921875,1.782470703125,40.25,48.625,-38.25
3215,-0.405029296875,0.08544921875,1.729736328125,35.0625,41.1875,-41.25
3217,-0.405029296875,0.08544921875,1.729736328125,35.0625,41.1875,-41.25
3219,-0.392578125,0.0712890625,1.6787109375,29,33.9375,-43.3125
3221,-0.392578125,0.0712890625,1.6787109375,29,33.9375,-43.3125
3223,-0.37451171875,0.06640625,1.613525390625,23.3125,25.625,-44.5625
3225,-0.37451171875,0.06640625,1.613525390625,23.3125,25.625,-44.5625
3227,-0.343017578125,0.072021484375,1.541015625,18.125,17.125,-45.25
3229,-0.343017578125,0.072021484375,1.541015625,18.125,17.125,-45.25
3231,-0.343017578125,0.072021484375,1.478515625,12.5625,9.6875,-45.3125
3233,-0.29052734375,0.088134765625,1.467529296875,12.5625,9.6875,-45.3125
3235,-0.29052734375,0.088134765625,1.467529296875,12.5625,9.6875,-45.3125
3237,-0.24853515625,0.109130859375,1.38720703125,6.9375,5.1875,-43.875
3239,-0.24853515625,0.109130859375,1.38720703125,6.9375,5.1875,-43.875
3241,-0.20703125,0.12744140625,1.30126953125,0.25,4.125,-40.9375
3243,-0.20703125,0.12744140625,1.30126953125,0.25,4.125,-40.9375
3245,-0.15380859375,0.143310546875,1.224609375,-7,6.1875,-37.125
3247,-0.15380859375,0.143310546875,1.224609375,-7,6.1875,-37.125
3249,-0.1015625,0.153076171875,1.168701171875,-13.625,10.875,-33
3251,-0.1015625,0.153076171875,1.168701171875,-13.625,10.875,-33
3253,-0.1015625,0.153076171875,1.168701171875,-13.625,10.875,-33
3255,-0.058349609375,0.1572265625,1.128662109375,-19.375,17,-29.4375
3257,-0.058349609375,0.1572265625,1.128662109375,-19.375,17,-29.4375
3259,-0.0244140625,0.150390625,1.098876953125,-23.0625,22.875,-26.6875
3261,-0.0244140625,0.150390625,1.098876953125,-23.0625,22.875,-26.6875
3262,0.00146484375,0.133544921875,1.077880859375,-23.8125,27.8125,-24.9375
3264,0.00146484375,0.133544921875,1.077880859375,-23.8125,27.8125,-24.9375
3267,0.016845703125,0.11279296875,1.060546875,-21.3125,31.5625,-24.375
3269,0.016845703125,0.11279296875,1.060546875,-21.3125,31.5625,-24.375
3271,0.016845703125,0.11279296875,1.060546875,-21.3125,31.5625,-24.75
3273,0.02197265625,0.091064453125,1.046630859375,-15.625,33.5625,-24.75
3275,0.02197265625,0.091064453125,1.046630859375,-15.625,33.5625,-24.75
3277,0.02197265625,0.074951171875,1.034423828125,-7.375,33.75,-25.75
3278,0.02197265625,0.074951171875,1.034423828125,-7.375,33.75,-25.75
3280,0.0234375,0.0703125,1.022705078125,2.25,32.5625,-26.5625
3282,0.0234375,0.0703125,1.022705078125,2.25,32.5625,-26.5625
3284,0.0234375,0.0703125,1.014404296875,11.75,30.9375,-27.125
3286,0.037841796875,0.072265625,1.014404296875,11.75,30.9375,-27.125
3288,0.037841796875,0.072265625,1.014404296875,11.75,30.9375,-27.125
3290,0.05859375,0.0791015625,1.00830078125,19.4375,29.5625,-27.3125
3292,0.05859375,0.0791015625,1.00830078125,19.4375,29.5625,-27.3125
3294,0.083251953125,0.092529296875,0.992431640625,24.375,29.0625,-27.3125
3296,0.083251953125,0.092529296875,0.992431640625,24.375,29.0625,-27.3125
3298,0.111572265625,0.108642578125,0.97509765625,25.8125,29.6875,-27.4375
3300,0.111572265625,0.108642578125,0.97509765625,25.8125,29.6875,-27.4375
3302,0.1376953125,0.121337890625,0.96435546875,23.9375,31.6875,-28
3304,0.1376953125,0.121337890625,0.96435546875,23.9375,31.6875,-28
3306,0.1376953125,0.121337890625,0.96435546875,23.9375,31.6875,-28
3308,0.159912109375,0.12646484375,0.957275390625,19.8125,34.6875,-28.1875
3310,0.159912109375,0.12646484375,0.957275390625,19.8125,34.6875,-28.1875
3312,0.1787109375,0.13330078125,0.95849609375,14.375,37.8125,-28.5
3314,0.1787109375,0.13330078125,0.95849609375,14.375,37.8125,-28.5
3316,0.1923828125,0.141357421875,0.957763671875,8.0625,40.75,-28.6875
3318,0.1923828125,0.141357421875,0.957763671875,8.0625,40.75,-28.6875
3320,0.203857421875,0.1484375,0.95703125,1.1875,43.3125,-28.75
3322,0.203857421875,0.1484375,0.95703125,1.1875,43.3125,-28.75
3324,0.203857421875,0.1484375,0.95703125,1.1875,43.3125,-28.75
3326,0.219970703125,0.148681640625,0.95263671875,-5.6875,45.625,-28.5
3328,0.219970703125,0.148681640625,0.95263671875,-5.6875,45.625,-28.5
3329,0.232666015625,0.134033203125,0.949462890625,-11.25,47.3125,-28.25
3331,0.232666015625,0.134033203125,0.949462890625,-11.25,47.3125,-28.25
3333,0.24169921875,0.110595703125,0.955078125,-14.5,47.9375,-28.25
3336,0.24169921875,0.110595703125,0.955078125,-14.5,47.9375,-28.25
3338,0.255859375,0.078369140625,0.95751953125,-15.25,47.625,-28.625
3340,0.255859375,0.078369140625,0.95751953125,-15.25,47.625,-28.625
3341,0.255859375,0.078369140625,0.95751953125,-15.25,47.625,-28.625
3343,0.275146484375,0.04443359375,0.947265625,-13.875,46.125,-29.75
3345,0.275146484375,0.04443359375,0.947265625,-13.875,46.125,-29.75
3347,0.306884765625,0.017822265625,0.928466796875,-11.9375,44.1875,-32.0625
3349,0.306884765625,0.017822265625,0.928466796875,-11.9375,44.1875,-32.0625
3351,0.34765625,0.0029296875,0.909423828125,-10.375,42.5,-35
3353,0.34765625,0.0029296875,0.909423828125,-10.375,42.5,-35
3355,0.34765625,0.0029296875,0.909423828125,-10.375,41.4375,-38.375
3357,0.385009765625,0.001953125,0.89111328125,-9.6875,41.4375,-38.375
3359,0.385009765625,0.001953125,0.89111328125,-9.6875,41.4375,-42.125
3361,0.4150390625,0.011474609375,0.875244140625,-9.375,41.6875,-42.125
3363,0.4150390625,0.011474609375,0.875244140625,-9.375,41.6875,-42.125
3365,0.44091796875,0.02685546875,0.858642578125,-8.6875,42.375,-46.125
3367,0.44091796875,0.02685546875,0.858642578125,-8.6875,42.375,-46.125
3369,0.462646484375,0.0400390625,0.842041015625,-6.6875,43.375,-49.25
3371,0.462646484375,0.0400390625,0.842041015625,-6.6875,43.375,-49.25
3373,0.480712890625,0.05517578125,0.823974609375,-3.75,44.375,-51.5625
3375,0.480712890625,0.05517578125,0.823974609375,-3.75,44.375,-51.5625
3377,0.480712890625,0.05517578125,0.823974609375,-3.75,44.375,-51.5625
3379,0.489501953125,0.068603515625,0.807861328125,0.4375,45.9375,-53.375
3381,0.489501953125,0.068603515625,0.807861328125,0.4375,45.9375,-53.375
3383,0.488525390625,0.08056640625,0.798828125,5.9375,47.75,-54.375
3385,0.488525390625,0.08056640625,0.798828125,5.9375,47.75,-54.375
3387,0.480224609375,0.091796875,0.812744140625,12.625,49.8125,-55.4375
3389,0.480224609375,0.091796875,0.812744140625,12.625,49.8125,-55.4375
3391,0.459716796875,0.096435546875,0.842041015625,20.1875,52.1875,-57
3393,0.459716796875,0.096435546875,0.842041015625,20.1875,52.1875,-57
3395,0.459716796875,0.096435546875,0.88330078125,28.5625,54.5625,-59.1875
3397,0.43359375,0.10791015625,0.88330078125,28.5625,54.5625,-59.1875
3399,0.43359375,0.10791015625,0.88330078125,28.5625,54.5625,-59.1875
3401,0.41943359375,0.129150390625,0.927978515625,37.1875,56.875,-61.8125
3403,0.41943359375,0.129150390625,0.927978515625,37.1875,56.875,-61.8125
3405,0.422119140625,0.155517578125,0.9775390625,45.8125,58.25,-63.875
3407,0.422119140625,0.155517578125,0.9775390625,45.8125,58.25,-63.875
3409,0.4296875,0.191162109375,1.04296875,52.4375,59.25,-65.25
3411,0.4296875,0.191162109375,1.04296875,52.4375,59.25,-65.25
3413,0.43212890625,0.236083984375,1.1240234375,54.6875,61.375,-66.125
3415,0.43212890625,0.236083984375,1.1240234375,54.6875,61.375,-66.125
3417,0.43212890625,0.236083984375,1.1240234375,54.6875,61.375,-66.125
3419,0.432861328125,0.288818359375,1.225830078125,51.375,65.5625,-66.5625
3421,0.432861328125,0.288818359375,1.225830078125,51.375,65.5625,-66.5625
3422,0.4345703125,0.343994140625,1.3544921875,43.1875,71.1875,-66.625
3424,0.4345703125,0.343994140625,1.3544921875,43.1875,71.1875,-66.625
3427,0.423583984375,0.39306640625,1.494384765625,30.8125,76,-65.8125
3429,0.423583984375,0.39306640625,1.494384765625,30.8125,76,-65.8125
3431,0.37548828125,0.449951171875,1.63330078125,16.375,77.5,-63.6875
3433,0.37548828125,0.449951171875,1.63330078125,16.375,77.5,-63.6875
3435,0.37548828125,0.449951171875,1.63330078125,16.375,77.5,-63.6875
3437,0.291259765625,0.511962890625,1.767333984375,2.8125,74.75,-60.375
3438,0.291259765625,0.511962890625,1.767333984375,2.8125,74.75,-60.375
3440,0.18115234375,0.57080078125,1.896484375,-9.4375,68.625,-55.4375
3442,0.18115234375,0.57080078125,1.896484375,-9.4375,68.625,-55.4375
3444,0.0751953125,0.61083984375,2.004150390625,-20.875,59.3125,-48.75
3446,0.0751953125,0.61083984375,2.004150390625,-20.875,59.3125,-48.75
3449,-0.01953125,0.62451171875,2.10595703125,-31.5,47.25,-41
3451,-0.01953125,0.62451171875,2.10595703125,-31.5,47.25,-41
3453,-0.01953125,0.62451171875,2.20361328125,-39.3125,32.875,-33.25
3454,-0.1328125,0.60400390625,2.20361328125,-39.3125,32.875,-33.25
3456,-0.1328125,0.60400390625,2.20361328125,-39.3125,32.875,-33.25
3458,-0.269775390625,0.560791015625,2.2783203125,-42.5625,16.375,-26
3460,-0.269775390625,0.560791015625,2.2783203125,-42.5625,16.375,-26
3462,-0.418701171875,0.515380859375,2.343994140625,-40.8125,-0.6875,-19.875
3464,-0.418701171875,0.515380859375,2.343994140625,-40.8125,-0.6875,-19.875
3466,-0.560546875,0.470458984375,2.418701171875,-35.0625,-18.0625,-14.875
3468,-0.560546875,0.470458984375,2.418701171875,-35.0625,-18.0625,-14.875
3470,-0.693359375,0.433837890625,2.465576171875,-26.75,-34.9375,-11.1875
3472,-0.693359375,0.433837890625,2.465576171875,-26.75,-34.9375,-11.1875
3474,-0.693359375,0.433837890625,2.465576171875,-26.75,-34.9375,-11.1875
3476,-0.818115234375,0.42138671875,2.46728515625,-16.75,-47.5,-7.875
3478,-0.818115234375,0.42138671875,2.46728515625,-16.75,-47.5,-7.875
3480,-0.934326171875,0.406005859375,2.46923828125,-7.875,-54,-5.5625
3482,-0.934326171875,0.406005859375,2.46923828125,-7.875,-54,-5.5625
3484,-1.0771484375,0.402099609375,2.499267578125,0.75,-61.375,-3.5
3486,-1.0771484375,0.402099609375,2.499267578125,0.75,-61.375,-3.5
3488,-1.0771484375,0.402099609375,2.499267578125,0.75,-61.375,-3.5
3489,-1.232666015625,0.402587890625,2.599609375,11.1875,-68.875,2.125
3492,-1.232666015625,0.402587890625,2.599609375,11.1875,-68.875,2.125
3494,-1.361572265625,0.40576171875,2.706298828125,21.5625,-76.625,8.5625
3496,-1.361572265625,0.40576171875,2.706298828125,21.5625,-76.625,8.5625
3498,-1.4453125,0.41455078125,2.81201171875,30.6875,-83.5625,13.125
3500,-1.4453125,0.41455078125,2.81201171875,30.6875,-83.5625,13.125
3502,-1.50732421875,0.418701171875,2.9033203125,36.3125,-88.3125,17.5625
3504,-1.50732421875,0.418701171875,2.9033203125,36.3125,-88.3125,17.5625
3505,-1.50732421875,0.418701171875,2.9033203125,36.3125,-88.3125,17.5625
3507,-1.580810546875,0.41943359375,2.97998046875,36.75,-92.125,23.6875
3509,-1.580810546875,0.41943359375,2.97998046875,36.75,-92.125,23.6875
3511,-1.66455078125,0.433349609375,3.076416015625,31.625,-97.5,31.0625
3514,-1.66455078125,0.433349609375,3.076416015625,31.625,-97.5,31.0625
3516,-1.74462890625,0.468994140625,3.194580078125,21.125,-106.0625,38.5
3518,-1.74462890625,0.468994140625,3.194580078125,21.125,-106.0625,38.5
3520,-1.8310546875,0.507080078125,3.318603515625,5.5625,-118.5625,45.5
3522,-1.8310546875,0.507080078125,3.318603515625,5.5625,-118.5625,45.5
3524,-1.917236328125,0.53271484375,3.3994140625,-15.4375,-134.625,51.5625
3526,-1.917236328125,0.53271484375,3.3994140625,-15.4375,-134.625,51.5625
3528,-1.97119140625,0.5400390625,3.45263671875,-41.125,-154.8125,55.375
3530,-1.97119140625,0.5400390625,3.45263671875,-41.125,-154.8125,55.375
3532,-1.97119140625,0.5400390625,3.45263671875,-41.125,-154.8125,55.375
3534,-2.048828125,0.518310546875,3.450439453125,-67.125,-178,56.6875
3536,-2.048828125,0.518310546875,3.450439453125,-67.125,-178,56.6875
3538,-2.12890625,0.468017578125,3.369873046875,-91.6875,-202,56.9375
3540,-2.12890625,0.468017578125,3.369873046875,-91.6875,-202,56.9375
3542,-2.192626953125,0.40087890625,3.230224609375,-111.5625,-225.8125,57.375
3544,-2.192626953125,0.40087890625,3.230224609375,-111.5625,-225.8125,57.375
3546,-2.241943359375,0.331787109375,3.05078125,-124.1875,-248.5,58.5625
3548,-2.241943359375,0.331787109375,3.05078125,-124.1875,-248.5,58.5625
3550,-2.241943359375,0.331787109375,3.05078125,-124.1875,-248.5,58.5625
3552,-2.279541015625,0.263671875,2.84375,-128.75,-268.625,59.5625
3553,-2.279541015625,0.263671875,2.84375,-128.75,-268.625,59.5625
3555,-2.313232421875,0.2119140625,2.6220703125,-127,-286.3125,61.5
3558,-2.313232421875,0.2119140625,2.6220703125,-127,-286.3125,61.5
3560,-2.339111328125,0.18115234375,2.447021484375,-121.8125,-302.1875,64.875
3562,-2.339111328125,0.18115234375,2.447021484375,-121.8125,-302.1875,64.875
3564,-2.318603515625,0.159423828125,2.25439453125,-113.3125,-315.5625,68.6875
3565,-2.318603515625,0.159423828125,2.25439453125,-113.3125,-315.5625,68.6875
3567,-2.318603515625,0.159423828125,2.25439453125,-113.3125,-315.5625,68.6875
3569,-2.236572265625,0.129638671875,2.03173828125,-102.125,-325.25,72.4375
3571,-2.236572265625,0.129638671875,2.03173828125,-102.125,-325.25,72.4375
3573,-2.117431640625,0.094482421875,1.82421875,-89.5625,-330.125,76.875
3575,-2.117431640625,0.094482421875,1.82421875,-89.5625,-330.125,76.875
3577,-1.99365234375,0.066162109375,1.641845703125,-77.5,-329,80.8125
3580,-1.99365234375,0.066162109375,1.641845703125,-77.5,-329,80.8125
3582,-1.8984375,0.0537109375,1.489501953125,-66.9375,-322.6875,83.875
3584,-1.8984375,0.0537109375,1.489501953125,-66.9375,-322.6875,83.875
3586,-1.840087890625,0.06103515625,1.360107421875,-57.6875,-312.4375,85.625
3588,-1.840087890625,0.06103515625,1.360107421875,-57.6875,-312.4375,85.625
3590,-1.79052734375,0.078125,1.25537109375,-49.75,-298.9375,86.1875
3592,-1.79052734375,0.078125,1.25537109375,-49.75,-298.9375,86.1875
3594,-1.79052734375,0.078125,1.25537109375,-49.75,-298.9375,86.1875
3596,-1.748779296875,0.0927734375,1.173583984375,-41.6875,-284.875,86.3125
3598,-1.748779296875,0.0927734375,1.173583984375,-41.6875,-284.875,86.3125
3599,-1.722412109375,0.1123046875,1.10791015625,-32.9375,-271.1875,86.1875
3602,-1.722412109375,0.1123046875,1.10791015625,-32.9375,-271.1875,86.1875
3604,-1.72265625,0.150634765625,1.0537109375,-24.125,-256.875,85.5625
3606,-1.72265625,0.150634765625,1.0537109375,-24.125,-256.875,85.5625
3608,-1.7529296875,0.20263671875,1.004150390625,-16.875,-242.4375,84
3610,-1.7529296875,0.20263671875,1.004150390625,-16.875,-242.4375,84
3612,-1.7529296875,0.20263671875,1.004150390625,-16.875,-242.4375,84
3614,-1.797607421875,0.25439453125,0.966064453125,-10.25,-229.3125,82.6875
3615,-1.797607421875,0.25439453125,0.966064453125,-10.25,-229.3125,82.6875
3617,-1.861083984375,0.27783203125,0.96240234375,-5.625,-216.375,83.125
3619,-1.861083984375,0.27783203125,0.96240234375,-5.625,-216.375,83.125
3621,-1.9296875,0.287353515625,0.966796875,-4.1875,-202.5,85.125
3624,-1.9296875,0.287353515625,0.966796875,-4.1875,-202.5,85.125
3626,-2.010498046875,0.221923828125,0.93896484375,-6.0625,-192.625,89.75
3627,-2.010498046875,0.221923828125,0.93896484375,-6.0625,-192.625,89.75
3629,-2.010498046875,0.221923828125,0.93896484375,-6.0625,-192.625,89.75
3631,-2.051025390625,0.12353515625,0.933349609375,-6.625,-185.625,91.8125
3633,-2.051025390625,0.12353515625,0.933349609375,-6.625,-185.625,91.8125
3635,-2.057861328125,0.07373046875,0.94873046875,-4.5,-179.75,81.125
3637,-2.057861328125,0.07373046875,0.94873046875,-4.5,-179.75,81.125
3639,-2.0869140625,0.096435546875,0.974853515625,-6.1875,-178.6875,65.4375
3641,-2.0869140625,0.096435546875,0.974853515625,-6.1875,-178.6875,65.4375
3643,-2.0869140625,0.096435546875,0.974853515625,-6.1875,-178.6875,51.0625
3645,-2.198486328125,0.123779296875,0.9697265625,-12.25,-176.625,51.0625
3647,-2.198486328125,0.123779296875,0.9697265625,-12.25,-176.625,51.0625
3649,-2.119873046875,-0.04443359375,0.799560546875,-39.375,-179,44.0625
3651,-2.119873046875,-0.04443359375,0.799560546875,-39.375,-179,44.0625
3653,-1.968505859375,-0.170654296875,0.725341796875,-74,-183.5625,31
3655,-1.968505859375,-0.170654296875,0.725341796875,-74,-183.5625,31
3657,-1.967529296875,-0.179931640625,0.747314453125,-96.9375,-181.25,9.375
3659,-1.967529296875,-0.179931640625,0.747314453125,-96.9375,-181.25,9.375
3661,-2.059326171875,-0.19140625,0.78369140625,-111.5,-182.1875,-11.75
3663,-2.059326171875,-0.19140625,0.78369140625,-111.5,-182.1875,-11.75
3665,-2.059326171875,-0.19140625,0.78369140625,-111.5,-182.1875,-11.75
3667,-1.825439453125,-0.108642578125,0.482666015625,-129.25,-169.625,0.3125
3669,-1.825439453125,-0.108642578125,0.482666015625,-129.25,-169.625,0.3125
3671,-1.628662109375,-0.340576171875,0.231201171875,-148.6875,-125.6875,-34.6875
3673,-1.628662109375,-0.340576171875,0.231201171875,-148.6875,-125.6875,-34.6875
3675,-1.689697265625,-0.54736328125,0.077392578125,-166.4375,-108.75,-137.75
3677,-1.689697265625,-0.54736328125,0.077392578125,-166.4375,-108.75,-137.75
3679,-1.729248046875,-0.6806640625,0.052978515625,-181.375,-95.625,-201.4375
3681,-1.729248046875,-0.6806640625,0.052978515625,-181.375,-95.625,-201.4375
3683,-1.729248046875,-0.6806640625,0.052978515625,-181.375,-95.625,-217.4375
3685,-1.65771484375,-0.85546875,-0.04248046875,-182.5625,-74.5,-218.9375
3686,-1.65771484375,-0.85546875,-0.04248046875,-182.5625,-74.5,-218.9375
3689,-1.576904296875,-0.81103515625,-0.23486328125,-165.8125,-54.1875,-218.0625
3691,-1.576904296875,-0.81103515625,-0.23486328125,-165.8125,-54.1875,-218.0625
3693,-1.504150390625,-0.596435546875,-0.322998046875,-149.125,-50.5625,-199.5
3695,-1.504150390625,-0.596435546875,-0.322998046875,-149.125,-50.5625,-199.5
3700,-1.412109375,-0.346435546875,-0.247802734375,-127.25,-56.625,-168.875
3702,-1.315673828125,-0.128173828125,-0.216796875,-90,-62.625,-130.4375
3704,-1.315673828125,-0.128173828125,-0.216796875,-90,-62.625,-130.4375
3706,-1.3095703125,0.07568359375,-0.220458984375,-40.0625,-70.6875,-92.875
3708,-1.3095703125,0.07568359375,-0.220458984375,-40.0625,-70.6875,-92.875
3710,-1.267822265625,0.250244140625,-0.23681640625,11.25,-91.9375,-57.5
3712,-1.267822265625,0.250244140625,-0.23681640625,11.25,-91.9375,-57.5
3714,-1.229248046875,0.367431640625,-0.218994140625,58,-126.0625,-26
3716,-1.229248046875,0.367431640625,-0.218994140625,58,-126.0625,-26
3719,-1.22412109375,0.432373046875,-0.1875,95.5625,-162.75,-1.25
3720,-1.22412109375,0.432373046875,-0.1875,95.5625,-162.75,-1.25
3722,-1.22412109375,0.432373046875,-0.1875,95.5625,-162.75,-1.25
3724,-1.17919921875,0.4482421875,-0.14306640625,122.125,-192.3125,14.625
3726,-1.17919921875,0.4482421875,-0.14306640625,122.125,-192.3125,14.625
3728,-1.11083984375,0.43310546875,-0.093017578125,134.0625,-215.1875,17.125
3730,-1.11083984375,0.43310546875,-0.093017578125,134.0625,-215.1875,17.125
3732,-1.073974609375,0.421875,-0.055908203125,129.3125,-233.125,7.125
3734,-1.073974609375,0.421875,-0.055908203125,129.3125,-233.125,7.125
3736,-1.043212890625,0.41845703125,-0.04638671875,110,-245.25,-4.8125
3738,-1.043212890625,0.41845703125,-0.04638671875,110,-245.25,-4.8125
3740,-1.043212890625,0.41845703125,-0.04638671875,110,-245.25,-4.8125
3742,-0.978271484375,0.406982421875,-0.046630859375,84.875,-247.5,-11
3744,-0.978271484375,0.406982421875,-0.046630859375,84.875,-247.5,-11
3746,-0.925537109375,0.40966796875,-0.018310546875,60.125,-239.625,-15.125
3748,-0.925537109375,0.40966796875,-0.018310546875,60.125,-239.625,-15.125
3750,-0.85400390625,0.44091796875,0.01025390625,37,-226,-21.9375
3751,-0.85400390625,0.44091796875,0.01025390625,37,-226,-21.9375
3753,-0.85400390625,0.44091796875,0.01025390625,37,-226,-21.9375
3755,-0.794189453125,0.47265625,0.022705078125,15.5625,-211.75,-29.4375
3758,-0.794189453125,0.47265625,0.022705078125,15.5625,-211.75,-29.4375
3760,-0.741455078125,0.492431640625,0.012939453125,-5.25,-198.625,-33.6875
3762,-0.741455078125,0.492431640625,0.012939453125,-5.25,-198.625,-33.6875
3764,-0.68408203125,0.4892578125,-0.02587890625,-24,-187.1875,-32.8125
3765,-0.68408203125,0.4892578125,-0.02587890625,-24,-187.1875,-32.8125
3767,-0.6396484375,0.46923828125,-0.07958984375,-37.125,-175.75,-29.1875
3769,-0.6396484375,0.46923828125,-0.07958984375,-37.125,-175.75,-29.1875
3771,-0.6396484375,0.46923828125,-0.07958984375,-37.125,-175.75,-29.1875
3773,-0.5986328125,0.4306640625,-0.127197265625,-44.1875,-163.4375,-24.5625
3775,-0.5986328125,0.4306640625,-0.127197265625,-44.1875,-163.4375,-24.5625
3777,-0.550537109375,0.38232421875,-0.164794921875,-48.0625,-150.625,-20.375
3780,-0.550537109375,0.38232421875,-0.164794921875,-48.0625,-150.625,-20.375
3782,-0.503173828125,0.326416015625,-0.197998046875,-51.625,-137.9375,-17
3784,-0.503173828125,0.326416015625,-0.197998046875,-51.625,-137.9375,-17
3786,-0.4833984375,0.252197265625,-0.22607421875,-55.4375,-125.625,-14.75
3787,-0.4833984375,0.252197265625,-0.22607421875,-55.4375,-125.625,-14.75
3789,-0.511474609375,0.1650390625,-0.259521484375,-55.9375,-114.9375,-15.3125
3791,-0.511474609375,0.1650390625,-0.259521484375,-55.9375,-114.9375,-15.3125
3793,-0.511474609375,0.1650390625,-0.259521484375,-55.9375,-114.9375,-15.3125
3795,-0.528564453125,0.08349609375,-0.270263671875,-49.1875,-106.9375,-18.6875
3797,-0.528564453125,0.08349609375,-0.270263671875,-49.1875,-106.9375,-18.6875
3799,-0.4853515625,0.031005859375,-0.2392578125,-37.5,-102.125,-22.375
3802,-0.4853515625,0.031005859375,-0.2392578125,-37.5,-102.125,-22.375
3804,-0.412841796875,0.0107421875,-0.189208984375,-25.5,-99.125,-23.75
3806,-0.412841796875,0.0107421875,-0.189208984375,-25.5,-99.125,-23.75
3808,-0.3544921875,0.016357421875,-0.137451171875,-15.625,-95.6875,-23
3810,-0.3544921875,0.016357421875,-0.137451171875,-15.625,-95.6875,-23
3811,-0.29833984375,0.037109375,-0.087158203125,-8.0625,-90.625,-21.5
3813,-0.29833984375,0.037109375,-0.087158203125,-8.0625,-90.625,-21.5
3815,-0.29833984375,0.037109375,-0.087158203125,-8.0625,-90.625,-21.5
3817,-0.236328125,0.064697265625,-0.031494140625,-1.9375,-84.9375,-19.875
3819,-0.236328125,0.064697265625,-0.031494140625,-1.9375,-84.9375,-19.875
3821,-0.17724609375,0.09375,0.028076171875,3,-78.875,-17.4375
3824,-0.17724609375,0.09375,0.028076171875,3,-78.875,-17.4375
3826,-0.129638671875,0.123779296875,0.080322265625,5.5,-72.6875,-13.625
3827,-0.129638671875,0.123779296875,0.080322265625,5.5,-72.6875,-13.625
3829,-0.09130859375,0.137939453125,0.121337890625,5,-67.1875,-10.0625
