ventana  acc_x__mean  acc_x__var  acc_x__std  acc_x__skew  acc_x__kurtosis  acc_y__mean  acc_y__var  acc_y__std  acc_y__skew  acc_y__kurtosis  acc_z__mean  acc_z__var  acc_z__std  acc_z__skew  acc_z__kurtosis  gyro_x__mean  gyro_x__var  gyro_x__std  gyro_x__skew  gyro_x__kurtosis  gyro_y__mean  gyro_y__var  gyro_y__std  gyro_y__skew  gyro_y__kurtosis  gyro_z__mean  gyro_z__var  gyro_z__std  gyro_z__skew  gyro_z__kurtosis
1  0,7839013671875  0,0005009985208511349  0,022382996243826135  0,5477019004025083  -0,7352787692492146  0,8307861328125  0,024128060936927796  0,1553320988621727  0,22938089273000734  -1,411897902201953  -0,2271533203125  0,001431251978874206  0,037831891029582516  -0,7144730011334648  -0,7916501969134782  6,230625  392,57317929687525  19,813459548924698  -0,2970258147275344  -1,1480509495491489  2,333125  252,51101992187498  15,890595329372495  0,7934209391322582  -1,0715003184446892  44,38875  1711,5406703125  41,37077072417796  0,24203360907311386  -1,5754465396105262
2  0,83509521484375  0,0013245145976543433  0,03639388132164998  -0,3641622537257761  -1,3078841073117697  0,259873046875  0,02987198390960694  0,17283513505536696  0,0197695058267037  -1,0549378644134142  -0,07712158203125  0,0033320544898509962  0,057723950747077216  -0,29530166120805157  -1,2428103880303139  39,849375  102,29156992187498  10,113929499550359  -0,4278846513168249  -1,1082570425662739  20,795625  81,84506679687497  9,046826338383807  -0,8656603097928735  -0,747709279992689  122,619375  99,40656992187505  9,970284345086405  -0,12876389923373427  -1,5957871758552986
3  0,833408203125  0,0007341116905212403  0,027094495576061944  0,013684332930281285  -1,302029770484746  -0,23250244140625  0,014595979517698284  0,1208138217163015  0,27711054254951467  -1,4898519598984938  -0,052099609375  0,0004519963264465334  0,02126020523058358  0,7020040462268048  0,2650211949104597  33,010625  92,66195742187502  9,626108113971867  -0,24964999380035477  -1,1449900269544997  -7,744375  27,47399179687501  5,241563869388124  -0,30489516751633566  -0,8353412886405738  110,299375  324,3242417968748  18,00900446434713  -0,7265486649144134  -0,41278671382665033
4  0,7313232421875  0,0017319291830062867  0,04161645327278968  -0,6231004075238473  -0,8393992539282413  -0,5294384765625  0,004794105505943298  0,06923947938815903  -0,053000891633678215  -0,5894795025745818  -0,0504931640625  0,00047350332736968974  0,021760131602765864  0,5421118319907396  -0,9495965041399637  33,145625  99,93187929687495  9,996593384592321  0,3924093417454443  -1,07475511280893  -24,70375  52,32707968749998  7,233745895972569  -0,1780506827601438  -1,2021391326710036  61,8625  44,574140625  6,676386794142473  0,1241598180075166  -1,652482203082764
5  0,61137451171875  0,00041371070742607125  0,020339879729882163  0,013092156210531185  -0,8555070901009274  -0,8538916015625  0,007980078959465032  0,08933128768502686  0,833669543547921  -0,5055749998340597  -0,02825927734375  0,0005245010554790497  0,02290198802460279  -0,42746764942836374  -0,9320722118824256  5,2625  165,57992187500014  12,867786207230836  -0,2800347093039663  -1,369057888326041  -7,96625  48,61581406250006  6,972504145749937  -0,6709814745753583  -0,5536120978189643  23,920625  1252,3123324218748  35,388025268752635  -0,24549080508479904  -1,6920757321331563
6  0,6503173828125  6,607472896575926e-05  0,008128636353396506  -1,4196423498638564  1,2630534463712042  -0,7137451171875  0,0009088760614395142  0,030147571402013698  -1,2248403504750318  0,6157793201379347  -0,07334716796875  0,0009044852912425996  0,03007466194727049  0,5060932624647299  -0,5043586826237765  -33,765  194,59977499999985  13,949902329407179  -0,29902796330903464  -1,7189630708777146  0,095625  11,441598046875004  3,382543133039844  0,00140556409154043  -1,4034343923096717  -27,085625  15,778644921875003  3,972234248112138  -0,1116386060551666  -1,0817619602544135
7  0,68650634765625  0,0032254555881023393  0,056793094545924676  -0,017057619522069804  -1,6792738439795942  -0,55690185546875  0,02164902717471123  0,14713608386358265  0,414508311390653  -1,3684108088322477  -0,11111572265625  0,0010836358726024628  0,03291862501081208  0,24890918672685702  -1,346216097463199  -41,5125  125,85429687500002  11,218480149957927  0,7443583666336521  -0,292875322218074  2,08875  78,97806093750002  8,88696016292973  -0,8770784880990273  0,36913431472774283  -84,4125  1026,6375781250001  32,041185654170164  -0,05792663335055047  -1,260244956988212
8  0,726064453125  0,0019849668979644765  0,044552967330633284  -0,61794815825662  -1,1567164201556437  -0,05306884765625  0,014080484694242472  0,1186612181559016  -0,04196014787777463  -0,27076319205098986  -0,23330810546875  0,0017110188663005817  0,041364463810142416  0,772998558053447  -0,3423533112948256  -42,316875  562,820019921875  23,72382810428947  -0,6007648989787635  -1,2517392421432585  -6,029375  421,2787855468752  20,525076992471313  0,518353262477112  -1,2015815086624122  -125,049375  583,843851171875  24,162860988961448  0,5520326331572876  -1,4003026025336176
9  0,830322265625  0,0005697286128997802  0,02386898851857322  -0,9437591982065636  0,43170926054114434  0,660380859375  0,03851811609268188  0,19626032735293672  -0,6126635619750006  -0,7804261912892057  -0,24951416015625  0,009380314940214159  0,0968520259995327  -0,34711734005953754  -1,2252121341514786  -35,3  137,8839062499999  11,742397806666231  -1,144541883643022  0,8711338009962057  -14,33  778,9961781250012  27,910503007380594  0,5349518904072115  -1,0284466971525172  -97,001875  463,1617542968751  21,521193142966656  0,7846749948147292  -0,33323080808005834
10  0,835  0,00020414557456970212  0,01428795207752679  -0,11740455276965121  -1,4923977364307999  0,81443359375  0,0004857297897338866  0,022039278339679967  0,8274328096923711  0,21519854690411355  -0,2411376953125  0,0021856433153152467  0,04675086432693247  -1,1159320155732608  -0,16542722455490688  -8,42  173,7241468750001  13,180445625053808  -0,8045223832782827  -0,5804207860682422  5,213125  12,073054296875002  3,4746300949705424  0,33247621933026766  -0,9117700733700023  -5,599375  547,9403980468751  23,408126752196022  0,3284003747741862  -1,1903155594353536
11  0,82736083984375  0,00023771721720695498  0,015418080853561347  0,6108521927752337  -0,981554482504035  0,52444091796875  0,02797339665293693  0,16725249371216241  -0,009704537428946858  -1,514765461885175  -0,21105224609375  0,00039692217707633983  0,019922905839167636  0,42738312827442526  -0,9625051600689987  8,396875  56,237138671875044  7,499142529107914  -0,37110728003884913  -0,3084567048774054  15,634375  79,45323242187501  8,913654268697828  -0,20834971095544902  -1,3699984547034973  62,691875  108,88259804687503  10,434682460279998  -0,45176182328328246  -1,466607040953342
12  0,922119140625  0,000675896406173706  0,02599800773470356  -1,2494832036437042  0,4049746615513681  0,30987060546875  0,0007991884410381315  0,02826992113604372  -0,9256370412037911  -0,2773673777106791  -0,13064208984375  0,0004691849887371062  0,021660678399743307  0,015895153846471034  -1,1477951420185182  23,395  252,70710000000017  15,896763821608477  0,0627043852815732  -1,5743397804775832  10,29875  114,43942031249995  10,697636202100908  -0,08860569466620989  -1,7307193012339992  50,821875  73,42026367187505  8,568562520742615  0,35281780761009146  -1,0538931866562085
13  0,9186328125  0,00012017498016357429  0,010962434955956377  0,32631701179044553  -1,3227137813691907  0,06744384765625  0,009435291737318038  0,09713542987663172  0,12202085050690685  -1,2350196468171708  -0,098505859375  0,003056094026565551  0,05528195027823775  0,4266373050272868  -1,5578752229334596  41,718125  23,324569921875  4,82955173094512  -0,1681390230118538  -1,4448449855386034  16,426875  110,296566796875  10,502217232416925  -0,030798247104191916  -1,5156217102712075  49,81875  11,176835937500005  3,3431775210867887  0,3175049106763182  -0,8376847276349548
14  0,90575439453125  0,00048632079958915736  0,022052682367212324  -0,42390792360605  -1,456115675043522  -0,11899658203125  0,005107985848188402  0,07147017453587477  -0,33402855433877954  -1,4348937977894138  -0,02597900390625  8,421790003776552e-05  0,009177031112389536  0,8890520316593916  0,7354076382961301  48,12  54,973803125  7,4144320837809286  0,5239306450993564  -0,8880876196593395  2,156875  12,078085546874995  3,4753540174887214  -0,960413191799682  4,9959158723771395  53,46  100,74082187500002  10,036972744557994  0,06303213555170278  -1,3573275188596312
15  0,81016845703125  0,001116211861371994  0,03340975697864314  0,043218507966627046  -1,215363203640685  -0,40414306640625  0,006430379933118821  0,08018964978797963  0,3263848880269031  -1,0312630909452432  0,03085205078125  4,137594103813169e-05  0,0064324133136896364  -0,42139236596453394  -0,205088700493802  36,81625  20,890454687499986  4,570607693458276  0,219124258073531  -1,1905591633235508  -6,915  27,67050937499998  5,260276549289018  0,10728335742808659  -0,8743825180591576  64,7575  95,67947500000002  9,781588572415016  -0,35441752905141893  -1,2280607320685941
16  0,6962158203125  0,0008337587118148807  0,02887488029091862  0,2489669349021899  -1,3937987940477221  -0,69197021484375  0,010090299481153486  0,10045048273230689  0,2567135044745575  -1,5922829025181315  0,07689453125  0,00019916644096374514  0,014112634090195393  -0,6210814142735325  0,3243031252176989  12,7025  301,68024375  17,36894480819143  0,04935993557211345  -1,6245870851492732  -9,24125  29,3195328125  5,414751408190408  0,24405964282656598  -0,620590670663101  37,3025  194,169196875  13,934460767284826  -0,49692988540397676  -1,2435346553189017
17  0,69486572265625  0,00032590991854667664  0,01805297533778509  -0,951137641115241  -0,5217685250330728  -0,70708251953125  0,004933973902463915  0,07024225154751174  -0,5675373414967085  -1,1108917771591234  0,0747705078125  0,0009233041048049925  0,03038591951554194  -0,4861805950454165  -1,1947372292915919  -25,891875  88,018113671875  9,381796931924875  0,6394405242582546  -0,6331335319866853  3,175625  10,932007421875001  3,3063586347937215  0,05499377839403202  -1,4093375600790548  -26,875  200,247578125  14,150886125080648  0,9558397589892549  0,041835772279275485
18  0,78853271484375  0,0020553458392620094  0,04533592217284225  0,4973123641783383  -0,8149418488263915  -0,44897705078125  0,009061303728818894  0,09519088049187745  0,19748237459438353  -0,9763130300258669  0,0054248046875  0,0002770347356796265  0,016644360476738854  -0,19143780622306644  -1,315898494109632  -44,87625  26,515935937499993  5,149362672943128  -0,10624676882155232  -1,429056706942272  -2,998125  12,347066796875003  3,513839324282629  0,5401989138528345  -1,2605297285802448  -57,789375  47,15864492187502  6,867215223209116  0,510371645645274  -1,0319736593025224
19  0,85428955078125  8,83043467998504e-05  0,009397039257119787  0,71087786216816  -0,20051312843762847  -0,16846923828125  0,005240582674741744  0,07239186884410254  0,4932878783749461  -0,9330780899415005  -0,1119384765625  0,0030362814664840697  0,055102463343157985  0,6552007360351966  -0,6775067782752586  -33,87125  33,65420468750001  5,801224412785633  -1,1510951872529598  1,0867254907555122  -25,538125  33,34264804687499  5,774309313404936  1,1516003098933782  1,1519306314165245  -77,684375  24,051748046875  4,904258154591274  0,8718456542101467  -0,6785153794052277
20  0,8699072265625  0,0006358444929122928  0,025215957108789124  -0,6375737711612663  -1,1458115987028916  0,13288818359375  0,007313656443357472  0,08551991840125593  -0,377864230400412  -1,4842136483413146  -0,23060546875  0,0003508440494537357  0,018730831520616904  -0,15741937266181175  -1,126601502876404  -42,47  566,5851156249998  23,80304845235164  0,3752779258566948  -1,1556056225703957  -17,44375  193,93707031249988  13,926129049829314  -0,7407165631233265  -1,2318878347266344  -59,49875  175,00515468749995  13,22895138276273  -0,23065283063845227  -1,3240809509004414
21  0,85776123046875  0,0002568923175334931  0,016027860666149214  -0,11787510451887315  -0,9229471295871345  0,44711181640625  0,014415847843885419  0,12006601452486636  -0,2519334025852286  -1,512677321584963  -0,297861328125  0,0012156497478485106  0,03486616910198926  0,6598367478577613  0,04564577324782659  -12,328125  66,947685546875  8,18215653399976  0,04379244018297513  -0,11019792341201251  -19,265625  43,672919921875  6,608549002759608  -0,2657220547582368  -0,6007709381405291  -73,1575  100,14081875000004  10,007038460503688  -0,1373085409118651  -0,7271687560720941
22  0,8489453125  8,2907772064209e-05  0,00910537050669598  -0,17418459566072533  0,10073332356056319  0,6971142578125  0,0021625885725021356  0,04650364042203724  0,219298902370968  -1,3533735364556678  -0,3319189453125  0,0004610686540603637  0,021472509263250155  0,31806148470007933  -0,7012550667174944  -2,89625  65,59736093749999  8,099219773379408  -0,5929326205464852  -1,3821212994418957  -6,4575  17,095693750000006  4,134693912492194  1,16493437873028  0,08432153661820196  -18,265625  367,353076171875  19,166457058410014  0,5860383029967339  -1,0544155933164299
23  0,80757080078125  0,0005185624301433568  0,02277196588227193  -0,2501154962450043  -1,599774470659103  0,6088916015625  0,003423300957679748  0,058508981854752416  -1,2529964184851  0,7535383862524436  -0,3623681640625  0,0005656047105789182  0,023782445428906555  0,5871341137263552  0,4123936876709049  -5,91125  211,40618593750006  14,539813820592753  -1,1715948186911749  -0,12280822754875853  13,68625  169,29234218750003  13,011239071952373  1,353790688469963  0,47240925901453057  42,91875  506,6585546874999  22,509077162058418  0,644126578187034  -1,3252268904725362
24  0,881591796875  0,0005546677112579346  0,023551384487072828  -0,6556024539460532  -0,95418676167156  0,30297607421875  0,012387498015165331  0,1112991375310938  -0,20019433093564057  -1,1440751229168995  -0,14470458984375  0,00357363378405571  0,0597798777520974  -0,6328545338016751  -0,6236142782660079  24,594375  68,6207417968751  8,283763745838911  -1,0139941346936658  0,5229791643338624  33,33875  37,865717187499996  6,153512589367149  -0,34244078440820863  -0,6218198692993537  79,486875  7,9122105468749995  2,8128651846249224  -0,8545946868215164  -0,5587786352474784
25  0,9045068359375  1,5438818931579586e-05  0,003929226251004081  -0,042965087249352586  -0,8926120975378051  -0,05943603515625  0,004967145174741748  0,07047797652275317  0,4561724446966933  -0,8589781665904033  -0,044951171875  0,00017421040534973154  0,013198878942915248  -0,16770907960151274  -0,28966060471324706  47,359375  75,365732421875  8,681343929477451  0,3931873869937594  -1,4803727333687802  7,97375  45,14696718750001  6,71914929046081  0,23786653450779902  -1,4154587937113636  63,83875  110,78337343749999  10,525368090356745  -0,11055942841677728  -1,5980317526290795
26  0,872890625  0,00038873853683471694  0,019716453454785343  -0,14232365527378643  -1,0674916688943212  -0,28892333984375  0,004516034430265427  0,06720144663818947  0,34813571022419315  -1,3164083826169641  -0,0051025390625  8,315503597259524e-05  0,009118938313893522  -0,933009285680725  0,44144196642851696  45,498125  58,450973046875  7,645323606419482  0,38989884109018275  -1,4041641911048446  -8,21  39,398556249999984  6,2768269252863735  -1,127353692600572  0,11785284557551323  45,400625  88,03297617187502  9,382588990884926  -0,9374928433163244  -0,554882872153986
27  0,8205810546875  0,00015281617641448982  0,012361884015573428  0,6662709670114241  -1,080444044820102  -0,415810546875  0,0015834554672241206  0,039792655945841575  -0,07567275719791317  -1,0992157651753307  -0,0154833984375  0,0004082801103591917  0,020205942451645052  -0,17321705591867687  -1,1848937497884293  44,206875  42,83685117187499  6,5449867205270165  -0,2892645902905381  -0,6793329984551364  -14,625  9,015234375  3,0025379889353605  -1,6398568918059186  1,7747641019860527  29,626875  10,406441796875  3,2259017029157913  0,4736333828508565  0,29328326288264206
28  0,73577880859375  0,0014725868403911591  0,03837429921693892  0,2754910312675492  -1,4359667698455034  -0,66269287109375  0,009942111843824377  0,0997101391224803  0,1883592323507143  -1,4493126371908587  0,0080029296875  0,0002342743635177611  0,015306023765751872  0,7094494294298869  -1,1735332562417653  5,8325  296,00006874999985  17,204652532091423  -0,24177116976476398  -1,489754682328718  -7,659375  77,26924804687496  8,790292830553199  0,49768137172782145  -1,3074523791180859  29,41125  61,678607812500005  7,853572932907672  -1,3073369280717726  0,5150985570220525
29  0,7448388671875  0,0010426092386245725  0,03228946017858726  -0,29850930712875423  -1,2961480225046975  -0,6408544921875  0,007257648491859432  0,08519183348102934  -0,3184699994670448  -1,316641147279481  0,0146435546875  7,5821852684021e-05  0,008707574443208682  -0,31575551489977993  -1,4963597578798997  -32,220625  59,22058242187499  7,695491044883035  -0,20613296652308513  -1,1926925181768409  8,38625  3,9030765625  1,9756205512445957  -0,16579425872375164  -1,3376316734770672  -26,8925  137,39094375000002  11,721388303012576  1,3706247779665044  0,8194337429917926
30  0,81322998046875  0,0002035802543163299  0,014268155252741326  1,1858304441427296  0,8792355598871415  -0,39459228515625  0,006424847096204758  0,08015514391606292  0,09415084614486835  -1,08894360956522  -0,05218994140625  0,002415278977155685  0,04914548786161029  -0,08870687875547262  -1,4376272593709885  -45,745  16,320365625  4,039847227928304  0,021011212117462263  -1,1224575635207825  -6,620625  31,686348046875036  5,629062803600172  0,16824564571713888  -0,9555148338723782  -61,21625  121,34401718750003  11,015626046099243  0,6275403093926456  -0,9901890604309949
31  0,854462890625  0,00031897459030151364  0,01785985975033157  -0,9414975601594252  -0,4769612331727773  -0,071875  0,005151236057281491  0,07177211197450924  -0,4908448697366856  -1,054517027415171  -0,171005859375  0,0035547212600708015  0,05962148320924934  -0,5581892757093021  -0,5826012202223638  -48,361875  38,60736679687498  6,213482662474804  0,6385037801003476  -0,6607044250288174  -16,42375  54,71192031250006  7,396750659073216  0,6338659322294159  -0,3897347605081607  -67,825  69,60593750000002  8,34301728992575  0,47440188622725465  -1,5114246773811006
32  0,90915283203125  0,0004964505374431612  0,022281170019618834  -1,0388774067556712  1,0982724862855058  0,1592724609375  0,003088513350486757  0,055574394737925456  -0,08767138470179367  -0,7906065690764561  -0,15227783203125  0,004637201851606367  0,06809700324982272  -0,7606229665189062  -0,3813312846967527  -48,730625  78,274976171875  8,847314630546096  0,04374042190703562  -0,9307853912919182  11,421875  54,120966796875  7,356695372031861  -1,771553941921668  3,429387213071661  -42,135625  39,512191796875  6,285872397438163  0,1690184444139025  -0,7859937899300928
33  0,95573974609375  0,000395324581861496  0,019882770980461855  -1,2819067037396232  0,9331041779839655  0,49094970703125  0,017573664492368697  0,1325656987775069  -0,08713656884522221  -1,1771928226028223  -0,12499267578125  0,0044867211043834706  0,06698299115733389  -0,849582720092915  -0,5129871842178226  -22,823125  160,611332421875  12,673252637814612  0,5646468779898923  -0,6278223187484553  -11,93375  159,20209531250006  12,617531268536649  0,11454120052508357  -1,6575216546776224  -49,165  56,630509374999995  7,525324536191113  1,743154520365073  1,8974056891528228
34  0,91904296875  0,00013273835182189942  0,011521213122839947  0,7520372932044225  0,06825136907247042  0,6153076171875  0,0018057221174240113  0,04249378916293546  -0,8549975953099698  -0,6629695126868431  -0,26912109375  0,0013977073192596437  0,03738592407925266  0,7341551003979859  -0,7870551630038736  7,514375  79,62889492187497  8,923502390982756  -0,3862633810253168  -1,6448829735484616  -3,14375  108,9844921875  10,439563792970471  -0,32197987677297357  -1,1596265262706698  13,24875  409,3476546875  20,23234179939386  -0,1418672344164754  -1,1291437389143613
35  0,90041259765625  0,0007515848815441132  0,027415048450515518  0,1112371015426194  -1,4485066037042171  0,36528076171875  0,01033978783488273  0,10168474730697191  -0,003392462552402547  -1,3585390974578193  -0,17001220703125  0,0003475936114788055  0,0186438625686526  -0,017886156892461206  -1,2118056510255173  33,375625  87,73152304687501  9,36651071887899  -0,8402477872390596  -0,6598589500984353  -0,05625  23,849414062500028  4,883586188703956  0,668397483535972  0,15842709992596093  52,244375  37,46172617187501  6,120598514187563  0,1528285399442528  -1,2270481642462487
36  0,867470703125  8,334484100341786e-05  0,009129339571043343  -0,3413149099768905  -1,1836815424912963  0,03813232421875  0,00582807027697563  0,07634179901584472  -0,12353348100199858  -0,3405008738008375  -0,1651220703125  0,00082914617061615  0,028794898343563396  0,6485172291126278  -0,8460693173101439  47,0625  32,373125  5,689738570444164  0,9860428928842015  -0,2208402032002703  7,06125  9,069060937500012  3,0114881599468415  -0,17608869513531974  -1,3595296514520465  65,035  11,657134374999998  3,4142545855574387  -0,00763106732174052  -0,7749521192151745
37  0,83662841796875  0,0007441616714000701  0,02727932681354271  -0,3205785637701466  -1,1239087162921733  -0,28392578125  0,008139313364028938  0,09021814320871904  0,1998756176582121  -1,2698941513058577  -0,06603759765625  0,0001413959205150604  0,011891001661553175  -0,37014972008712266  -0,581373981498817  54,19125  85,10740781250006  9,22536762478873  -0,36816341124118657  -1,0854030084543  -3,780625  32,13410117187499  5,6686948384857505  0,899650347869441  -0,8344339304181299  62,559375  54,421435546875024  7,377088554902606  -0,048696770464939074  -1,4814036980791
38  0,75103271484375  0,00031676394343376174  0,017797863451374206  0,2250031111413441  -0,20195989017888039  -0,55806884765625  0,007514901608228683  0,08668853216099973  -0,8917874118914153  0,26025177519749754  -0,0070458984375  0,002376723313331603  0,048751649339602895  -0,3072099115691265  -1,2927337919322084  44,251875  420,69894179687486  20,510946877140384  -0,007668116035573063  -1,6949473468537772  5,985  9,741337500000007  3,1211115808314203  -0,9896188388533643  0,6504125141981265  49,411875  14,355476171874995  3,7888621209902844  0,31848834098194684  -1,2914978017492869
39  0,68223876953125  0,0003475813567638398  0,018643533912964028  0,7248573321215184  -0,6481151534685434  -0,82038818359375  0,008008448714017867  0,08948993638403073  0,52031755509874  -1,1892287923914844  0,04096435546875  0,0010432056128978726  0,03229869367169317  0,46625985030831846  -1,3594089321959346  -23,38  174,00145937500005  13,190961275623549  0,3621215544270966  -1,1920239670385633  2,50875  36,40687656249999  6,033811114254405  -0,2392352935999121  -1,4391674198548114  -6,644375  1453,2101324218759  38,12099332942252  0,6682816718747496  -1,2336031062874309
40  0,78213134765625  0,0009392820537090296  0,03064770878400259  0,06491170236181738  -1,1272704767697386  -0,495771484375  0,008417647933959965  0,09174774075670727  0,03842168766417062  -1,3212292075387677  0,0057666015625  0,00027006242275238036  0,016433576079246427  0,5017509072954351  -1,0706735161171415  -46,389375  17,65366054687501  4,201625940856112  0,45098310489434856  -1,5056540483015288  3,165625  6,7436230468749905  2,596848676160201  0,9737949548576487  0,014838505523852241  -57,735625  49,49662929687497  7,03538409021675  0,30155555692373237  -0,9315279295108922
41  0,867138671875  6,854057312011722e-05  0,008278923427603207  -0,34588261076838817  -0,06056867587804149  -0,153671875  0,008919994020462032  0,09444571996899612  -0,3129989774072188  -0,7612833687287535  -0,0615380859375  0,0018761525392532346  0,0433145765216888  -0,7099506948507915  -1,2491987691188011  -34,935625  241,662691796875  15,54550390939049  0,07546067333073098  -1,4728270390118656  -2,665  321,08074375  17,9187260638138  -0,10816433027772021  -1,5918597356526705  -80,495625  45,52111367187502  6,7469336495829735  0,8891633362421689  -0,6957148951981251
42  0,85825439453125  0,00037117611765861535  0,019265931528441995  0,0427124702666487  -1,1502428377623874  0,1597021484375  0,011363202357292178  0,10659832248817135  0,4038174581848892  -1,5773816085360355  -0,2270166015625  0,0051757562398910524  0,07194272888826954  0,29969154894172734  -1,297360231670289  -36,623125  88,25339492187497  9,394327805749327  0,0593058329039353  -1,441458201989124  -16,098125  321,85291054687525  17,940259489396336  0,038776984598788124  -1,4199361284763046  -74,915625  40,957529296875  6,39980697340748  -0,43041617787622166  -0,44847732131484763
43  0,89678466796875  0,00018862707018852228  0,013734157061448012  0,10673672120470726  -1,3059776188630001  0,435947265625  0,010541874790191655  0,10267363239990905  0,4303715639841018  -0,9463383269236743  -0,10994384765625  0,003820191687345504  0,06180769925620516  -0,4132013671578881  -1,1478212689432405  -16,384375  50,727685546874994  7,122337084614501  0,9079455426097164  -0,8237924542040789  11,17125  28,49004843749999  5,3376069954147045  -0,7009731753808429  0,3338306749323614  -64,119375  10,826491796875  3,290363474887691  0,20672256537300637  -1,3817695382406596
44  0,85783203125  0,0003681002616882325  0,019185939166176686  0,15616726103640885  -0,9931417151426016  0,7568359375  0,0017516732215881348  0,041852995371754874  -1,2247971036688394  0,6455589926000642  -0,1822802734375  0,002549123501777647  0,050488845320304634  0,6133866887457837  -0,6954687977064391  -7,2625  67,22367187499995  8,199004322172293  -0,2696146372337418  -0,5964659419519465  -2,55  87,7759375  9,368881336637795  0,5053472066295335  -1,0057920484076146  -20,29125  511,9922046875001  22,62724474361605  0,38424034717121425  -0,8392895382498842
45  0,8816015625  0,0005855273246765134  0,024197671885462728  0,19740726547325882  -1,2740280727159543  0,6899951171875  0,013721353507041931  0,11713818125206628  -0,6120879737310173  -0,954395741579444  -0,11331298828125  0,0005077810943126677  0,022533998631238703  0,4923309342063607  -1,1451233367032496  24,205625  180,0490855468749  13,418237050629076  -0,4739849720917092  -0,4439852936147979  0,19375  30,948164062500037  5,563107410656389  1,131781192084952  0,23213091680201625  58,636875  420,3106011718752  20,501478024080974  -0,14218559227209648  -1,5435297527875904
46  0,8230078125  0,0002470253944396973  0,01571704152948949  0,4812245649480335  -1,2905052126436716  0,20470458984375  0,025723331516981113  0,1603849479127674  -0,18566088776084985  -1,3037003100341478  -0,1465283203125  0,0003359870672225952  0,018329950006003706  1,5472812548649355  1,8226397633901987  55,721875  25,57104492187502  5,056782071819491  -0,37019940949769686  -1,4313635242598877  9,344375  84,00558554687503  9,165456101410067  0,5331034479522186  -1,086117509761057  98,81125  47,71382656249995  6,907519566566566  -0,4792119792303301  -1,0332407661564647
47  0,81078125  5,59126377105713e-05  0,007477475356734471  -0,6572305394354674  0,2687555777944062  -0,3084716796875  0,01011169970035553  0,10055694754891643  0,5330994581642297  -0,7932740197735044  0,03391845703125  0,003570291107892989  0,05975191300613721  -0,5500510661903091  -1,1450098427103208  53,9325  69,15958437500002  8,316224165749745  -0,2235242985273191  -1,0156207983567773  12,733125  242,44319179687503  15,570587394086166  -0,4976954261479919  -1,5068405292658853  87,940625  318,20526367187506  17,83830887925969  -0,11580324415741786  -1,409685003085838
48  0,722509765625  0,0014843726158142085  0,03852755657726309  -0,09013592624921044  -1,135196967739162  -0,63672119140625  0,015747875565290455  0,12549053974419927  -0,1989354430358732  -1,084661672070936  0,10533447265625  0,00024264618754386917  0,015577104594367631  -0,5039934810684741  -0,691887595824396  32,42875  307,7307828124999  17,54225706152147  0,3095522715509994  -1,3004738321934894  -5,188125  4,426913671875004  2,104023210868883  -0,015436651886430815  -1,2048345715516033  56,486875  93,10064804687498  9,6488677080202  -0,769938514787122  -0,3312830606982011
49  0,66719482421875  0,00033749348521232595  0,018370995759956127  0,33572955772536167  -1,4135175977070673  -0,814404296875  0,005185408592224123  0,07200978122605375  0,4142213473970209  -1,363309661566999  0,1084814453125  6,312873363494873e-05  0,007945359251471813  -0,6185050305105161  -0,08544893753180505  -30,313125  362,48019492187495  19,038912650723386  -0,08534519490916016  -1,5686260749277992  1,46375  11,932045312499994  3,454279275406086  -0,6385533189483612  -1,222162470747539  -13,699375  434,2034917968748  20,837550043056282  0,706640298737873  -0,7858311632797159
50  0,731005859375  0,003611423969268799  0,06009512433857508  0,7198176990415158  -0,9998062331377415  -0,477978515625  0,021278667449951157  0,14587209277291924  0,05143725201481324  -1,3493160178276147  -0,007421875  0,005167407989501952  0,07188468536136158  -0,16443011826529985  -1,4282339366306374  -40,16375  759,3115453125002  27,555608237026817  0,2842074097849727  -0,8309738643597591  -2,788125  212,81600742187504  14,588214675616582  0,1529033712720758  -1,2441570947973755  -69,7675  274,3765687499999  16,564316126843266  0,025522454041626216  -1,1210868468568098
51  0,86138916015625  0,0008501283824443817  0,029156961131852916  -0,81174617525441  0,13691434922472867  -0,09979248046875  0,009941345900297166  0,09970629819774258  -0,30094906746474925  -1,488194970400025  -0,01057373046875  0,008122105234861374  0,0901227231882247  -1,2141997270176665  0,13269765459652172  -56,214375  614,169863671875  24,782450719649884  1,1424862271634688  0,1759879839870897  -20,280625  512,354101171875  22,63524024992611  -0,695230624086847  -1,0353974939174855  -84,071875  258,39307617187495  16,074609674013082  -0,28032817804864096  -0,7599543885665532
52  0,85010986328125  0,00849266454577446  0,0921556539002055  0,2097411597011273  -1,3011268691842737  0,40465087890625  0,06693213030695921  0,25871244714346314  0,06341378241207779  -1,1483616552019968  -0,28313720703125  0,0012147710978984828  0,0348535665018443  0,35050447428149917  -0,9526676942431966  -35,095  1076,969646875  32,817215708755676  0,9930412753301463  -0,6988993687031733  -29,28125  416,2008203125  20,40100047332238  -0,9336701966862118  -0,6308219178382335  -87,50375  624,7791265624999  24,995582140900417  -0,36228129601399967  -1,4876965068789632
53  0,9533544921875  0,0029774949789047227  0,05456642721403631  0,03279934760284012  -1,6261600169758585  0,75077392578125  0,016432042187452325  0,12818752742545714  -0,1886849572576292  -1,488479972758924  -0,36850341796875  0,0008863519370555885  0,029771663323630213  0,38795635638221904  -1,1214875535903457  0,271875  400,7145605468749  20,017856042715337  -0,0979064773796546  -1,5170461994850057  3,819375  135,602569921875  11,644851648770583  0,2978872953075536  -0,7869071850176117  21,7425  1101,8818968750002  33,19460644253822  -0,4783248624497557  -0,8437445677564246
54  0,85176513671875  0,0012730467975139615  0,03567978135462662  -0,566942543544768  -1,2703425913867405  0,2780224609375  0,03379676411151885  0,18383896244136838  -0,25292011678893817  -1,3571611388681286  -0,1922119140625  0,0034358066320419344  0,05861575412840762  -0,7307809874711172  -0,9441101996976591  36,45375  199,4262984375  14,121837643787723  -1,7625447453473484  2,1514096867803465  25,9425  30,947162500000005  5,563017391667943  1,4153817700442604  1,4656377676347727  88,741875  250,8141136718751  15,837111910694926  0,3253098405090964  -0,7358297371485722
55  0,82660888671875  0,0013455740153789529  0,03668206667268017  -0,6759859449362295  -0,5335966111439903  -0,2256494140625  0,017398565554618838  0,13190362221947827  0,023934402986767578  -1,3716327722814405  0,0202392578125  0,00189354360103607  0,04351486643707033  -1,440864450852721  0,9793282175008255  43,945  787,5518187499997  28,06335366184875  -0,8879122873900178  -0,8359303710964312  0,666875  728,5461761718748  26,99159454667091  0,4030447700936168  -1,2733445393144467  95,803125  570,165810546875  23,87814503990783  -0,013449576024707022  -1,2208395530153242
56  0,671318359375  0,0006031764507293695  0,02455965086741604  1,4023766609581454  1,0017209044073798  -0,62892333984375  0,009475508040189743  0,09734222126184373  0,11085080078414729  -0,8220940658370304  -0,04527587890625  0,001017654389142989  0,031900695747005096  0,5854423251914344  -0,6350189484518056  43,816875  517,1282230468747  22,7404534485765  -0,055962916974335  -1,740974828111025  -20,245625  254,94470742187505  15,966988051034392  0,0313193670775516  -1,5744508048546682  52,400625  5,051726171875  2,2476045408111722  -0,530533708726806  0,05035342013944222
57  0,64017822265625  0,00034997469782829257  0,018707610692664432  -0,032695430023985804  -0,9877959502875844  -0,88738525390625  0,0014324484527111045  0,037847700758581154  -0,11363086292672611  -1,0472230092220411  0,0304150390625  0,00019056222438812255  0,01380442770954749  -0,8872120384740035  0,43013416200246457  -19,035625  399,15353554687516  19,97882718146576  -0,6178784788866365  -0,6371379085499984  2,366875  8,499816796874997  2,9154445281766206  -0,016951264984915174  -0,9472785675588868  1,87375  620,1425765624996  24,90266203767179  0,13061543412655507  -1,5536659065985658
58  0,678876953125  0,0036657105445861817  0,060545111648969495  0,2763255415270876  -1,4405473640475046  -0,54619873046875  0,035432535237073896  0,18823531878229946  0,0487220841714258  -1,238651608739586  -0,039609375  0,0007377852439880369  0,027162202487796105  0,5688057540490863  -1,1520489137260639  -48,233125  250,658738671875  15,83220574246921  0,18386324733743964  -1,1654454017090121  9,909375  9,550966796874999  3,090463848174736  -2,007545955298364  4,153765986357717  -82,99625  644,3713921875002  25,38447147741115  0,812518681919769  -0,7660336718043537
59  0,7711865234375  0,001180040335655212  0,034351715177778415  -0,10503748423832074  -0,28169223990003145  -0,11396484375  0,022464441061019885  0,14988142333531493  0,3476316588761899  -1,1227233681395006  -0,0871435546875  0,0018394837617874149  0,04288920332423318  0,29309169803621765  -1,0204300512143267  -85,5825  318,1197562499998  17,83591198257044  -0,4443455812664769  -1,2173030246446332  3,32625  245,22051406250014  15,659518321535312  -0,20335874841024965  -1,2816879071822935  -78,894375  179,284663671875  13,389722314965123  -0,9259169687157525  -0,32864093851009724
60  0,9646337890625  0,007863678956031796  0,08867738694860035  0,5338826146536805  -1,3479595145967467  0,61177490234375  0,04984371668696405  0,22325706413675706  -0,07294153276093406  -1,3712662260607502  -0,20491455078125  0,004810652798414229  0,06935886964487116  0,7219615575226348  -1,1847917952023284  -29,753125  278,964482421875  16,702229863759957  -0,24108091711097732  -0,9058523883056537  4,565625  101,48307617187517  10,073880889303544  -0,15529008819902515  -0,8093254430927268  -84,93625  629,4386703125002  25,088616349103436  0,7662883270310811  -0,5817126463505553
61  1,030380859375  0,003962264442443849  0,06294652049513022  0,19652601607877088  -1,0933962628367568  0,66254638671875  0,02414178168177604  0,15537625842378894  0,7205692584246395  -0,9551314221589355  -0,166025390625  0,001029670143127441  0,03208847368023978  -1,1362377557742445  0,8909828347264561  27,49625  343,1235796875  18,5235952149549  -0,08810800550977609  -1,2156552115449422  4,32  17,471662500000004  4,1799117813657265  -0,18002081330175085  -1,4700770582746165  42,739375  592,0947699218755  24,33299755315558  -0,9431150713845781  0,0001111962981545922
62  0,8410791015625  0,002234558844566345  0,04727112061889738  -0,07277862581236932  -1,380997765829292  0,1333740234375  0,036289548277854904  0,19049815820068944  0,13036674298639297  -1,219350330789288  -0,07656982421875  0,0008161218822002413  0,028567846999734532  -1,1623617488770652  -0,1352702652035016  71,774375  90,25522617187502  9,5002750576957  0,5488954826623077  -1,419807793809867  -1,098125  36,05142617187501  6,004283984945666  0,16458872817596454  -1,6727306760318088  91,26  38,531071874999995  6,207340161051269  -0,4425567404738389  0,01858860265766893
63  0,7364208984375  0,0002555784940719602  0,015986822513306395  -0,14805314831698022  -1,2333061328603796  -0,37658447265625  0,015486853712797156  0,12444618802035343  0,2703715436406017  -1,45964059588693  0,009814453125  0,001759434938430786  0,04194561882283758  -0,508871800284193  -1,4663974677118736  81,07125  30,584298437500003  5,5303072642937305  0,7832611387526832  0,7269870107462189  -3,481875  29,242288671874988  5,407613953665238  -0,5812701518693021  -0,5981873349577409  73,325  204,00554687500008  14,283051035230535  -1,1643266565916317  0,12434859895649897
64  0,661884765625  0,0013623066902160644  0,03690943903957448  0,15023247101028203  -1,3949117378982785  -0,79515625  0,037717039489746085  0,19420875235103613  -0,25945432123360773  -1,5051504746571724  0,145771484375  0,005020653820037841  0,07085657217250804  0,3094400080527153  -0,8703078409746912  47,234375  654,253935546875  25,578388056069425  -0,32440822192912866  -1,118791738582983  6,88  82,54020937500002  9,085164245901117  -0,21512504562997226  -0,8517026896424089  41,038125  180,977726171875  13,452796221301911  -2,0046748298938115  3,1548048270720974
65  0,69821533203125  0,0013557063281536105  0,03681991754680625  -0,6821698781753619  -0,9226858714850108  -0,73154296875  0,03255974173545838  0,1804431814601438  -0,5086655175253855  -1,172447024914965  0,216953125  0,005079277181625366  0,07126904785126124  -0,29898412128327756  -1,1889275362060006  -36,778125  648,2841699218744  25,461425135327254  0,5498938633583634  -1,1778430848316577  -8,626875  53,889879296874966  7,340972639703472  1,3244254370562132  1,0288130733685756  -46,9475  133,24833750000013  11,543324369521985  1,6910355145871314  2,0314193901380087
66  0,73164306640625  0,0005910154521465301  0,024310809368396812  1,1517194947152958  1,269795126032057  -0,3997705078125  0,009877070689201354  0,09938345279371891  1,4684328508564783  1,3286121763043974  0,003125  0,0018939566612243648  0,043519612374472785  0,08031688061463686  -1,2165398389080004  -84,03  103,87574062499992  10,191944889225017  0,8304645044349016  -0,8006575742451907  -11,609375  27,139248046875  5,209534340694473  0,2525816527886961  -1,5735923776600682  -70,58125  177,00753906249997  13,304418027952218  -1,4362678747040416  0,604927757334762
67  0,75689208984375  0,0008186076343059541  0,028611320037809407  0,3566344074775562  -1,1077568527825041  0,10242919921875  0,007423426359891896  0,08615930802816313  0,15165016405339102  -0,6571765420894415  -0,2223291015625  0,00581867959499359  0,07628027002438828  0,736878361729867  -0,676087968437868  -63,515  154,91922812500002  12,446655298713788  0,1867535592559283  -1,1416906493790622  -1,549375  353,85721054687514  18,8110927525988  0,08165178824250303  -1,5611473525210668  -92,2625  119,66242187500002  10,939032035559638  0,5231036554218784  -0,9710571782545165
68  1,09389892578125  0,0232057069480419  0,15233419494007872  -0,46072056657997296  -0,93121763974057  0,745595703125  0,04268626561164861  0,20660654784311316  -0,17945062578619936  -1,227395573618353  -0,05572998046875  0,005749713009595873  0,07582686205821702  -1,0557333760637486  0,19376092852422167  -17,753125  272,82526367187506  16,517423033629523  -0,7961039387016142  -0,4664743820870192  18,49875  156,54742031249998  12,511891156515867  0,02559701578428529  -0,883584698126135  -56,128125  1165,2016699218748  34,1350504602216  0,6529361392756154  -0,8672695143242586
69  0,97500244140625  0,009359832876920701  0,09674622926461114  0,833341820706855  -0,06628957836534877  0,59888671875  0,024176047945022584  0,15548648798214776  0,42158468853539194  -0,6410558200308518  -0,1151171875  0,0010233157634735102  0,031989307017713124  1,0160134890836292  0,9723577561697909  29,248125  136,332769921875  11,676162465548131  0,34629050048840604  -0,7218568967672421  -8,820625  12,233176171875005  3,4975957702220257  0,17622645857308647  -0,4628157606245993  66,255  501,5974750000002  22,396371916004615  -0,48563249655647844  -0,9572732643135913
70  0,78079833984375  0,0034885458648204804  0,05906391338897619  -0,3338342772583996  -1,437174668708941  0,06360107421875  0,039108332985639566  0,1977582690701948  -0,45923741454268785  -0,8186865252212416  -0,0291796875  0,001684798574447631  0,041046297938396724  0,23849175852314405  0,13773747008930792  96,835  550,0046500000004  23,45217793724072  -1,0456061573925899  -0,5328053828523034  -8,7925  43,21366250000003  6,57370994948819  0,20287124622782518  -1,2476047577874165  100,085  16,723712499999998  4,089463595632072  0,14156991111160963  -1,0440360680205745
71  0,666396484375  0,0005450204849243165  0,023345673794609497  0,05514084697511686  -0,210217554487377  -0,584931640625  0,016277692651748665  0,12758406111951706  -0,318626300295692  -1,3984819765279137  0,07830322265625  0,005003315037488938  0,07073411508945975  -0,11996278139744188  -1,0709998463083867  79,328125  480,687060546875  21,924576633241404  -0,04875872138283877  -1,2902209075429592  -11,150625  39,985007421875  6,323369941880278  -0,36126181841421734  -0,7634607749963251  58,4625  370,1381249999998  19,23897411506133  0,5429788914016127  -0,49148564545781737
72  0,74397216796875  0,0002169367015361786  0,014728771216098734  -0,8429994913113295  0,5711935181804577  -0,84396484375  0,002266873455047608  0,04761169451980898  -0,15738521649354187  -0,8925708527325318  0,207255859375  0,0009766765594482422  0,03125182489788784  0,18710070365655462  -0,8168253065973774  0,628125  893,6919042968741  29,894680200612182  0,4137109197476705  -1,3332196424280205  -0,36875  98,34488281250002  9,916898850573197  0,4084870422264803  -1,2175617082538024  1,413125  481,4897574218752  21,942874866841745  -1,0746674173241677  -0,3591750656228774
73  0,738359375  0,00015824422836303715  0,012579516221343219  0,7417046635086401  -0,30460279804149604  -0,52298095703125  0,016842165774106983  0,1297773700384893  0,12251076533465063  -1,3027374737066573  0,0094384765625  0,006938474440574648  0,08329750560835929  0,21757239677867335  -1,3912736392188039  -37,51375  285,41988906250003  16,894374479763968  0,3431070545212337  -1,2744550881829333  -12,489375  3,0942230468749994  1,759040376704014  -0,4295608878055811  -0,04137237229743329  -60,11625  243,3684390624999  15,600270480427572  -0,37674562554283386  -1,5062415384236867
74  0,854736328125  0,0012027168273925782  0,034680208006766314  -0,9502450134406634  0,27162705794919884  -0,1808544921875  0,009270250296592715  0,09628213903207965  0,45404295844187603  -0,750373996457522  0,00892822265625  0,0013557997405529022  0,03682118602860182  -0,8867762752817756  0,3724263392953566  -61,8175  400,19388125000006  20,0048464440495  1,2585972106435903  0,16539127235177542  -0,62875  38,89803281249997  6,236828746446384  -0,15459049248136725  -0,03185213100566964  -63,195  54,20869375  7,362655346408658  -0,3968832632372014  -1,0866261553639647
75  0,84082763671875  0,0006938999354839328  0,02634198047763176  0,3169261620353038  -0,9218041952859726  0,19346923828125  0,018084030598402027  0,1344768775604268  0,1444673412164406  -1,6375586002571527  -0,144990234375  0,0034208885192871085  0,058488362255128226  0,8959960504419751  -0,015692139011600048  -48,295625  712,4964730468747  26,692629564111414  0,2213563764423075  -1,3262043264378123  -32,875  63,304609375  7,956419381543434  -0,06682451031792583  -1,3567081814555684  -97,30125  454,86049843749976  21,32745878996135  0,07223192536134192  -1,444954126229756
76  0,8567236328125  0,00310433509349823  0,05571656031646453  0,3868613390307394  -0,7725887779090295  0,731962890625  0,04287623319625851  0,20706577021868802  -0,26467202618609126  -1,0589329247528065  -0,31414794921875  0,0014662973582744599  0,03829226238124955  -0,3244527739414758  -0,09214402960155521  -42,011875  269,8602886718749  16,427424894726347  0,17179821819768246  -1,1727943455489294  -6,829375  240,27483242187512  15,500801025168832  -0,22121663509266554  -1,0726053513982732  -54,688125  410,23433554687495  20,254242408613436  0,7342083704241004  -0,5007886600001332
77  0,89804443359375  0,003295094841718674  0,057402916665607456  0,3492313675810377  -1,1724197885105783  0,82193115234375  0,028218247479200362  0,16798287852992747  -0,1874759509498187  -1,1800503070310653  -0,20944091796875  0,001406983917951584  0,03750978429625508  0,6325854006330484  -0,9536839663413907  29,01625  227,29028281249984  15,076149469028882  -0,807697847376041  -0,4893543870362289  16,8  37,80765624999999  6,1487930726281546  0,07409146804226414  -1,3006696308004404  59,63875  1094,0228578125002  33,07601635343199  -0,3268266381497915  -1,0291220079926409
78  0,8118896484375  0,00012022554874420166  0,010964741161751227  -1,2062060312933283  0,5423415896327715  0,14978515625  0,03742890892028809  0,1934655238544793  0,07087230375510743  -1,0525428615735828  -0,0331103515625  0,00153247926235199  0,039146893393371456  -0,5539442143085974  -0,42713312142021165  40,6625  20,57484375  4,535950148535585  -0,17561515796357036  -1,615504453351725  15,01  92,00505625000001  9,591926618255584  -0,055325298453695944  -1,2506596838670299  123,811875  22,267616796875036  4,718857573277142  -1,2197699287178  0,5751972669244938
79  0,75783203125  0,00022106847763061533  0,014868371720891812  0,4856292109799113  -0,9905270587610087  -0,42314208984375  0,010950126284360881  0,10464285109055889  0,19794306647339682  -1,2302975495102686  -0,0134765625  0,0003232109546661377  0,017978068713466907  0,8397824979055852  -0,41932383098565085  54,455  180,35891250000003  13,429777083034551  -0,5595693232942671  -1,0417524971829735  -18,939375  61,49261367187505  7,8417226214572935  1,2871264575097239  0,2799263016110394  71,2  654,8164062499995  25,58938073205367  0,5301478855061629  -0,9954352699739633
80  0,72181884765625  6,635100245475765e-05  0,00814561246652194  0,5528164890635046  -0,47799317009580333  -0,7713525390625  0,00863160421848297  0,09290642721837371  0,7256741588014539  -0,9743085967095282  0,026845703125  0,001020182275772095  0,031940292355770554  -0,5469255337224764  -1,4126742831294916  1,079375  685,5731136718755  26,183451141357885  0,545314586022843  -1,403692139552625  0,3825  49,59674062500003  7,042495340786533  -0,49797461183458824  -1,1141550324784106  26,5025  563,29218125  23,733777222557727  -0,9609171113483991  -0,508927446751589
81  0,73707275390625  8,517786860466003e-05  0,009229185695642928  1,1269494932381292  1,0228685937885968  -0,60500732421875  0,007644575709104533  0,08743326431687504  0,38793041433210335  -0,742671290022721  -0,0455712890625  0,001696837210655211  0,04119268394575924  0,809040256840967  -0,6637612714071874  -50,660625  288,3686917968752  16,981421960391753  0,4121821338501716  -1,2824047151123164  -9,166875  16,56086367187501  4,069504106383849  -0,07983010402366357  -1,2179244710440715  -43,109375  131,893466796875  11,484488094681234  -1,3647822435451196  0,5506451510922412
82  0,80433837890625  0,0005766931235790249  0,02401443573309656  -0,2717763085829329  -1,4506382115106016  -0,08604736328125  0,04001687452197079  0,2000421818566544  -0,20476537407025436  -1,4529454424616928  -0,19490478515625  0,005040874546766277  0,07099911652102635  0,35028153380820864  -1,3552305863037013  -35,636875  157,87458554687498  12,564815380532854  0,29883849670742785  -1,2879044594323616  -26,30875  104,81756406249998  10,238044933604266  0,7880861591169072  -0,632490636676343  -114,38625  709,3135453125001  26,632940981282935  -0,04714973398775176  -1,3835081715107493
83  0,79357177734375  0,00020532781481742853  0,014329264280395855  0,12049564453204682  -0,6307069699472088  0,23943359375  0,022714147663116458  0,15071213508910442  0,7146414648449839  -0,9561667082277272  -0,2706787109375  0,002748064398765565  0,0524219839262648  0,33923533751758  -1,1436556068237929  -57,26875  657,4819921875003  25,641411665263288  0,2660436771915987  -1,3325004300577719  13,9925  364,14986562499985  19,082711170716802  -0,6994100818864031  -0,41285393800017944  -69,10625  138,84589843750007  11,783288948230883  -0,032803244765204326  -1,4769709660338173
84  0,89765625  0,0015297508239746093  0,03911202914672939  0,11518108548019114  -1,0309751566388115  0,92357177734375  0,02353865429759026  0,15342312178283382  -0,784413699688732  -0,46957502405418294  -0,19794677734375  0,0004636124312877656  0,021531661136284064  -0,26969368355129725  -0,3477925382677789  -16,336875  114,77796054687497  10,713447649887264  -0,033059152814603  -1,0437592413814951  8,42875  27,805392187499994  5,273081849118217  0,9307856224780156  -0,2279539188040416  -36,196875  1361,4593261718755  36,897958292727736  0,4327158801972516  -1,088733621688729
85  0,8593017578125  0,0006025129556655883  0,024546139323029768  1,4223877922536245  0,8031012084495552  0,70714599609375  0,025919910019636165  0,1609966149322282  0,06659527044498714  -1,1389515243294122  -0,1198388671875  0,0030505490541458146  0,05523177576491466  0,058483194821144835  -1,5160001266697833  32,038125  378,74725742187474  19,46142999427007  -0,4747820953896265  -0,9232320998191201  14,31125  21,22382656250001  4,606932446053449  -0,4374346618656803  -0,7992752633560527  89,41875  474,3475390625  21,779521093506624  -0,3928111603217049  -0,840166764711324
86  0,801201171875  0,0017608357429504402  0,041962313365095115  -0,6981780747079976  -1,0839082531192576  0,07920166015625  0,0368136228263378  0,19186876459272312  -0,21147206580750996  -0,8845746505270209  0,0371484375  0,001413800382614136  0,03760053699901287  -0,4137894193523958  -1,3478429698907064  82,283125  228,6053480468749  15,119700659962646  -0,08418723678172069  -1,5645845029182655  23,44375  70,93988281250006  8,42258171895649  0,11246543064591515  -1,324919892721786  119,324375  17,707632421874997  4,208043776135771  0,10808288827325623  -1,6390894005069654
87  0,68833984375  0,0007985202312469483  0,028258100276680815  -0,20297655630392544  -1,3911312969270997  -0,50207275390625  0,01074396907687188  0,10365311899249284  -0,11903942906425244  -1,025878171143897  0,0906396484375  0,0022763259649276734  0,04771085793535548  1,5109588095522768  1,605057931907294  68,709375  173,39112304687507  13,167806311108736  -0,26932510887050476  -1,1750529415794753  15,79  259,10105624999994  16,096616298154093  0,973118785809668  -0,31378382736873833  85,435625  256,70987929687493  16,022168370631828  0,08955284725039621  -1,2730373058434103
88  0,6548974609375  0,00018626620769500722  0,013647937855039025  -0,2873675909868654  -0,5902957967420752  -0,91263427734375  0,005742880553007127  0,0757817956570516  0,7682192420458048  -0,48562422390695215  0,3712646484375  0,002682856917381286  0,05179630215933649  0,17139614349568708  -0,28456557583524633  -14,604375  520,993285546875  22,82527733778661  0,07951006658248892  -0,18738151857117114  7,276875  616,8261136718747  24,835984250113277  0,8006721776420598  -0,9864515321136205  23,545  1905,991490625  43,65766245030762  0,1686558894336603  -1,445972248283405
89  0,69765380859375  0,00020783912539482102  0,014416626699572305  -0,02074082459611375  -1,4687018563330017  -0,61388916015625  0,006387380951642989  0,0799210920323477  0,13102358340765638  -0,8787475129228333  0,13177490234375  0,006434569805860519  0,08021577030647103  0,4399139804353821  -0,8462150238539548  -63,72875  32,29759531250001  5,68309733442073  0,057442177326401236  -1,1366262921512875  -25,52125  15,965329687499988  3,995663860674467  0,1420406625030721  -1,283751281570033  -62,703125  173,958779296875  13,189343399004933  -0,5079682084295271  -0,916390149292325
90  0,71167724609375  0,0006323235690593721  0,025146044799518114  0,7433441011425785  -0,5883160993901022  -0,23534423828125  0,023859175986051535  0,1544641576096265  0,06380567657225869  -1,6368917748281642  -0,11531005859375  0,004094770783185959  0,06399039602304364  0,7084462236627165  -1,1091478521289753  -78,1175  628,45244375  25,068953782517532  0,2138608585641562  -1,357375749951039  -29,62625  413,3118734375  20,330073129172458  0,42660464534386744  -1,2486239929323588  -89,6575  2,3194125  1,5229617526385881  0,2788325899114193  -0,6851204582842443
91  0,89959228515625  0,0020062957465648633  0,0447916928298637  -1,2334420459351605  0,8965268222621647  0,41138427734375  0,05649921113848686  0,23769562709163763  0,12306425913021202  -1,1866229156409982  -0,12546875  0,005447761631011965  0,07380895359651134  -0,25193174015851927  -0,5789893962680197  -47,690625  761,6119824218745  27,597318391863265  -0,28435320260807706  -1,4768888328155378  -4,461875  522,9750699218752  22,86864818746126  0,3295358051533708  -1,4477294915233743  -105,441875  375,89626992187505  19,388044510003454  -0,2996208273007914  -0,5852311558570227
92  0,9483349609375  0,003657045102119446  0,06047350744019604  0,053011364389764684  -1,4333487452300626  0,841181640625  0,008540711975097662  0,0924159725106957  -0,6163370655054904  -0,7958793515550409  -0,27505615234375  0,004229386633634569  0,06503373458163517  0,32777482252808565  -1,3399069305904017  4,863125  184,69614804687498  13,590296098572502  0,21641114212085458  -0,8626090876837673  -3,11875  205,33167968749981  14,329399139095115  -0,8556584377132004  -0,31283581610712297  -20,766875  1637,5060824218745  40,46611029518249  0,2933676240550265  -1,0554388918630158
93  0,8661376953125  0,002180370688438415  0,04669443958801106  0,17739097791139188  -1,2464375029967243  0,48322021484375  0,034078466719388974  0,18460353929269335  -0,08337068578083653  -1,2473862529295419  -0,17730712890625  0,00029650375247001646  0,017219284319332683  -0,328161849813621  -1,4409198155026097  52,371875  107,88956054687493  10,386989965667384  -0,359716031668931  -0,9790138220099158  5,018125  17,541898046875005  4,188304913312187  -0,15240328292470232  -1,0866381700827734  86,623125  192,10276992187516  13,86011435457425  -0,6753468455344732  -0,9728971401298554
94  0,76426025390625  0,00010925065875053397  0,0104523039924475  1,2154949465790308  0,882522837240308  -0,1264404296875  0,022632289528846744  0,15044031882725703  0,26740949040650486  -1,1444829010314914  -0,16143310546875  0,0015347836673259738  0,03917631513205363  0,6474316533896767  -0,8551582597458038  73,394375  33,94880429687501  5,82656024570887  -1,312394417607399  1,4959899730690687  8,771875  16,170263671875  4,0212266377157855  -1,290275095387756  0,691275849985018  96,931875  19,791569921874995  4,448771731823852  -0,5888578529108419  -1,1782408142936716
95  0,7377783203125  0,00028635480403900156  0,016922021275220096  0,1535786999181162  -1,349341872614096  -0,50675048828125  0,007550120800733564  0,08689143111224239  -0,2654213352281727  -1,180844509877162  0,03400634765625  0,003588999861478806  0,05990826204688971  -0,1806017968650571  -1,0437941328714557  69,126875  225,9958167968751  15,033157246462737  -0,29169485480557106  -1,4609348642279811  2,153125  37,76073242187497  6,144976193759824  0,3697118410906295  -0,6546301407109545  61,359375  283,064560546875  16,82452259491707  0,8872184760716618  -0,46161267816772833
96  0,6293115234375  0,001381902956962586  0,03717395535805392  0,6917906386945561  -1,0959447498900783  -0,926826171875  0,013226132488250733  0,11500492375655372  0,7006542217285961  -0,5757298103206705  0,17064697265625  0,00032440239787101733  0,018011174250198606  -0,3893822739232983  -0,8957316626371976  -1,649375  1204,3742886718746  34,7040961367945  0,28388667145212065  -1,359957417400193  3,456875  16,419741796874987  4,0521280578080185  0,015234560465433046  -1,2103755720399632  19,809375  736,1315136718747  27,131743653364314  -0,7964721073639701  -0,828769581129245
97  0,680576171875  0,0018036014080047606  0,042468828662970685  0,3529352504447836  -1,065547412788375  -0,60722412109375  0,020394968622922883  0,14281095414191056  -0,1476033758119345  -0,9584713805449239  0,05516357421875  0,0018760399520397182  0,04331327685640649  0,09948392230434068  -1,5226055303023291  -64,9525  34,31868125  5,858214851812794  1,5602968527738714  1,4852618405272162  -8,21625  29,826439062500004  5,461358719448852  0,17939032157694074  -1,755134105823069  -65,451875  241,37936367187504  15,536388372845055  -0,09387120617134186  -1,3547510716125228
98  0,7230615234375  0,000385132098197937  0,01962478275543291  0,791331183897435  -0,7826315829787305  -0,21009521484375  0,026804738491773596  0,16372152727046493  0,7376738383845237  -0,8550734291289355  -0,0960595703125  0,004489148163795471  0,06700110569084268  0,016683980268435244  -1,3060569282927879  -86,95625  102,82347656250002  10,140191150195346  -0,28823323200847684  -1,2898504119924392  -13,465  62,85697812499998  7,9282392827789945  1,190045544837626  1,077667937357039  -97,40625  171,3626953125  13,090557486696278  -0,2691413002965959  -1,5328931239208188
99  0,87427490234375  0,006200289076566699  0,07874191435675601  -0,14157013985369732  -1,479478242438916  0,51889404296875  0,02454051124453545  0,15665411339807023  -0,8045986620602326  -0,7364653903541067  -0,344248046875  0,017062718772888185  0,13062434219121713  0,20886821824023016  -1,621610388415739  -46,86  1971,1959468750001  44,398152516461764  0,6938132238103004  -0,7749017935456579  -14,108125  133,557176171875  11,55669399836627  0,9421007519485093  -0,4736471224983112  -72,5325  498,8211312499999  22,334303912367627  0,37536574986222043  -1,2754112769010082
100  1,0206494140625  0,004388432717323301  0,0662452467526788  -0,7187565483567293  -0,7484090046781264  0,6943798828125  0,00186577603816986  0,04319462973761738  -0,9032196949838159  -0,1282603417033803  -0,25451416015625  0,007700641745328898  0,08775330048111522  -1,5108475443142446  0,8943293157315861  4,22  538,6577718750001  23,209001957753376  -0,7821174490774201  -0,7394638541534349  21,464375  149,67400429687507  12,234132756222447  0,5606448875216455  -0,039598800256515965  -0,62125  718,5786578125002  26,806317498166365  -0,16376734087964728  -0,3551396797529631
101  0,8807666015625  0,004119379258155826  0,06418239056124216  0,06193576510634582  -1,7047761907176324  0,3504638671875  0,03125223696231842  0,1767830222683118  -0,369239655322475  -1,2282058589695646  -0,175693359375  0,0011623889446258548  0,034093825608544646  -1,0954587861633325  0,36178345040576243  58,1575  103,39417812500001  10,168292783206038  0,1763210506025236  -1,4080358580572423  19,203125  17,198466796875  4,147103422495634  0,9316449025882637  -0,3920971002142668  69,566875  154,67275429687493  12,436750150134678  -0,8091910740636874  -0,5948808429742636
102  0,85962158203125  0,001351194971799851  0,036758604051294594  -0,3399214105815298  -0,7672594402045982  -0,04009521484375  0,002202491587400436  0,04693071049324137  -1,12818241106689  -0,035875084572153604  -0,04240478515625  0,0020917864978313443  0,04573605249506503  -0,5894859687245194  -0,8487783375639268  57,319375  57,090460546875  7,5558229562950325  0,14990177967840507  -1,0303189498901946  13,254375  7,161660546875001  2,67612790181542  0,16347664980040771  -0,5052164358540936  88,25125  78,05710781249998  8,834993367994114  0,5233469086219343  -1,2188605114706275
103  0,62519775390625  0,005731980437040326  0,075709843726165  0,07209689057833586  -1,1842718593804258  -0,561962890625  0,04193258404731748  0,2047744711806564  0,31724396260579885  -0,9996704906285738  0,04594482421875  0,000731750363111496  0,027050884701086877  0,38932061200657647  -0,5897189409513204  55,764375  447,7020980468753  21,1589720460819  -0,5079333129599258  -0,7759234566705167  17,089375  109,87876992187499  10,482307471252453  0,6500779851573566  -0,592270755006346  88,753125  373,64768554687515  19,32996858628785  -0,3427002113691797  -1,3205364350670128
104  0,59305419921875  0,00037170335650444026  0,019279609863906484  -0,760106507139992  -0,5890042851332677  -0,8935693359375  0,01689497449398041  0,12998066969353717  0,21277926930432495  -1,4659801405829567  0,33283935546875  0,014019720190763469  0,11840489935287082  -0,519795364366315  -1,3672001646141572  14,816875  1207,415410546874  34,747883540539185  0,34926360088254493  -1,4111055908346084  19,33875  249,55337343750006  15,79725841522826  -1,19216055919454  0,28088988883221155  29,67625  543,9853421874998  23,323493353001385  -1,4451389105626302  0,7621112957396852
105  0,61079345703125  0,00027773463129997255  0,016665372222064906  0,15051408634624985  -0,735353752385322  -0,7712890625  0,012455734014511104  0,11160525979769548  0,024387108192666217  -1,0182087009475616  0,22903564453125  0,010556770151853561  0,10274614421891247  -0,11402904486447307  -1,2999313569300937  -49,025625  269,61656992187494  16,42000517423411  1,072646777851229  0,10201631471170503  -25,793125  22,34505429687499  4,727055563125421  -0,40112054527339464  -1,5226075442998899  -55,579375  272,107801171875  16,495690381789874  -0,5105403354788713  -1,2632838099927377
106  0,7380322265625  0,0024202525377273556  0,04919606221769539  -0,5612838079500428  -1,0917746972443734  -0,34260009765625  0,013216842764616012  0,11496452828858131  -0,16604584988977522  -1,310347828944339  -0,04527099609375  0,0018908539474010464  0,0434839504576234  0,19149063179712067  -0,524516222592808  -48,974375  97,541804296875  9,876325445066854  -0,501640369259059  -1,2826117885786197  -36,0075  3,006193750000001  1,733837867275946  -0,5476554309199134  -1,0836723878862773  -95,806875  24,920554296875007  4,992049108019172  -0,035206160769012895  -1,1961343279381418
107  0,82685546875  0,000914313793182373  0,030237622148283634  -0,1419342649944361  -1,1549539164752967  0,10114501953125  0,028144260996580107  0,16776251368103695  -0,046865384717531766  -1,4853194993586858  -0,203974609375  0,006721138334274294  0,0819825489618022  -0,8252712374133919  -0,7732512737863368  -48,626875  511,7315980468747  22,62148531920207  0,6043520983287746  -1,3583488539348205  -50,558125  274,95783242187485  16,581852502717386  -0,04183321641020355  -1,7195421498189631  -106,19875  149,9640921875  12,245982695868062  -0,3300767500575233  -1,3890445383619858
108  0,76137451171875  0,0011958755195140842  0,034581433161656044  0,6231316001719259  -0,9447418330696546  0,6061865234375  0,06181769826412202  0,24863165177451166  0,5001623763745231  -1,0916967003801952  -0,520029296875  0,002274598979949949  0,04769275605319899  0,5259243594855838  -0,09294811296071437  -43,35875  497,97043906250036  22,315251265950387  -0,3330874289597262  -1,1713638814274965  -30,224375  344,76578867187504  18,56786979359439  -0,6955352315920287  -0,5163659988940092  -69,10125  154,44045156250002  12,427407274347294  1,0127679645561323  1,2377039276822046
109  0,77598876953125  0,0008150963485240933  0,028549892268169653  0,7569740800965876  -0,43287194384819294  0,74380615234375  0,027100432699918735  0,1646220905587058  0,5399174847723921  -0,9904976177629679  -0,507158203125  0,0036172507762908916  0,06014358466445853  0,8510692299752947  -0,6452731620855938  27,51125  457,85776406249994  21,39761117654258  -0,1251061839096384  -1,589567099945315  28,523125  317,17239492187497  17,809334488460678  0,0026926960797870264  -1,474187281190051  50,268125  794,4526792968749  28,186036956210692  -1,1123000700220498  0,36698881362381464
110  0,8003955078125  0,00013925693035125717  0,01180071736595946  -0,3362420904749637  -1,0358973508892322  0,2027001953125  0,030778125071525574  0,17543695469177972  0,08104503567292551  -1,1054149420364998  -0,175234375  0,008968789720535282  0,0947036943341456  -0,45162173877834444  -1,0978469633279382  69,851875  28,330441796875004  5,3226348547383  -0,4774045864732196  -1,3781133598557027  50,8275  39,63227500000001  6,295416983806554  -0,15815476200472178  -1,5564514713097022  104,623125  132,47464492187507  11,509763026312708  0,11839021821972373  -1,1360154216233471
111  0,74392578125  0,0009000400066375731  0,030000666769883184  -0,6830926260195733  -0,8323252386286484  -0,37552001953125  0,019106227940320974  0,13822527967170467  -0,04383540140598489  -0,8940089771462554  0,0455712890625  0,003032878899574279  0,055071579780993016  0,30910866218881217  -1,252377584483918  67,52  85,9946  9,273327342437558  -0,5091171946620875  -0,8042949713253411  17,991875  105,76997304687502  10,284452977522676  0,6693205651106227  -0,8121928504673588  87,135625  247,89750429687516  15,744761169889976  0,9014609361477642  -0,5021542692233494
112  0,6649365234375  0,0001783694982528686  0,01335550441776231  0,8642976978177269  0,24642621019739375  -0,85024169921875  0,014356422537565227  0,1198182896621598  0,3386263591000812  -1,3142954161866103  0,1885107421875  0,0010544204950332643  0,03247184157132552  0,0007638608335403954  -1,5698709732140361  29,656875  528,167694921875  22,981899288828913  -0,49641287579204985  -0,7507731253432337  5,749375  16,177616796875007  4,022140822606167  0,6978432200473407  -0,8487074023970478  40,9525  439,651025  20,96785694819573  -0,17471787764014027  -1,1750872816943359
113  0,6769482421875  0,00029986569881439217  0,01731663070041029  -0,23574006806990142  -0,9566005724260855  -0,76065185546875  0,00945760089755059  0,09725019741651217  -0,5756788563205909  -0,5552765138540741  0,148505859375  0,0018881453037261971  0,04345279396915919  0,025467545018546575  -0,8909216315292041  -54,51625  505,3863765624999  22,480800176205914  -0,0876817333418843  -1,6951383549756522  -7,876875  9,461363671874995  3,0759329758424507  0,43541989300295697  0,833795245774462  -34,44125  177,03842343750006  13,30557865849885  0,5200788611656358  0,10468772570164475
114  0,7333349609375  0,00020631625652313236  0,014363713187164813  -0,3566551243235565  -1,4249239258439526  -0,3899951171875  0,014796333527565  0,12164018056368134  -0,3784374716266582  -1,17242824732944  -0,043388671875  0,004381660318374635  0,06619411090402706  0,1133023176190145  -1,1384215799323991  -65,1975  181,978025  13,489923090959415  -0,06979081909526456  -1,4939834912312306  -25,02375  45,28959218750002  6,729754244212787  0,4594556445034453  -1,101227993157441  -81,448125  135,3906292968751  11,63574790449136  0,14225364736534768  -1,1289706261873547
115  0,74206787109375  0,00039684354662895225  0,01992093237348474  0,4461184181066306  -0,6765823740423786  0,04256591796875  0,025414792746305474  0,1594201767227269  -0,04577601447147594  -1,137197100536228  -0,272890625  0,001983460330963134  0,04453605652685399  0,004989318685432272  -1,0657099599450446  -24,774375  3907,7004605468746  62,51160260741101  0,8467633335588094  -0,8877972720167953  -25,6575  635,1758968749999  25,20269622232907  0,15533536481251223  -1,2306453378568611  -96,365  689,7963843750003  26,263975029972144  -1,0320936278665627  -0,3664429779597729
116  0,88360107421875  0,0016693578422069544  0,040857775786341505  -0,1847424588628563  -1,2033959001087018  0,6840576171875  0,010229429602622986  0,10114064268444702  -1,1800767422368166  0,3588447727657149  -0,513427734375  0,019507424831390383  0,13966898306850517  0,5160959493978657  -1,009252292530162  -24,14625  1717,0018921875003  41,43672154246159  0,06908558854867501  -0,17272611700954554  -34,866875  260,4767699218749  16,13929273301265  1,318665065495831  1,232574465541136  -56,461875  1283,689757421875  35,828616459778  -0,7710307604306882  0,29065140188818095
117  0,867509765625  0,00031544551849365234  0,017760785976235746  -0,27781881869064845  -1,0538937421062318  0,58080078125  0,009275176429748535  0,09630771739455013  -0,8799757245430501  -0,2253736253518448  -0,40384765625  0,021812717580795293  0,1476912914859752  0,019036242970548158  -1,1540303723385588  18,376875  930,9548792968745  30,511553210167367  0,005055720345000823  -1,6340165942345062  46,596875  82,59041992187498  9,08792715209992  -1,845684008402349  2,6591640427142327  75,08  649,75625625  25,490316911525444  -0,7369420957814612  0,13650806218377687
118  0,76685302734375  0,0030181401431560524  0,054937602269812  -0,03146297171364306  -1,5000590510662735  -0,03697509765625  0,041268192976713226  0,2031457431912203  0,11275273881234645  -1,3261720208388381  -0,05992919921875  0,0014171975314617152  0,037645684101390894  -1,1447995407969744  0,22519608512159062  79,59125  251,80768906250003  15,868449485141893  2,3471472911982163  5,149131739494802  25,92625  65,3942484375  8,086671035568344  0,5221233968871094  -0,5242293712791462  118,081875  13,224038671875006  3,6364871334675453  -1,541487962042808  2,959674178217048
119  0,6231689453125  0,0006068390607833862  0,024634103612337636  -0,15479621251146214  -0,4676771035652929  -0,6346337890625  0,011960247063636773  0,10936291448035194  0,7451605150562703  -0,16270376416170462  0,143349609375  0,008282388114929203  0,09100762668551028  -0,8799374981043657  -0,9200280073045644  81,108125  3066,657957421878  55,37741378415823  0,6070286407543655  -1,3481635362095408  12,79375  87,94707031250007  9,378009933482694  0,9027725042054049  -0,15405258320080817  73,643125  112,60189804687505  10,611404150576636  -0,16678766703002668  0,8109763635765916
120  0,56781494140625  0,00037485343813896177  0,01936113215023754  -0,013792002328919585  -0,21248893930874946  -0,932763671875  0,006322708129882812  0,07951545843345689  0,2750497291381969  -1,238871247066676  0,3005322265625  0,0023821568250656138  0,04880734396651403  -0,2804753451043619  -1,0890337102668302  -6,386875  394,8393511718751  19,870564943450276  0,67298629970258  -0,8390733281633418  16,4225  288,74024375  16,992358392818815  -0,4384699955755458  -1,3397919957429545  12,26125  1564,6440140625004  39,55558132631223  -0,4065352948051306  -1,4676326605076373
121  0,64189208984375  0,00046190821528434734  0,021492050048432965  0,5011479964596973  -1,037572093476821  -0,66361083984375  0,0044623176753520975  0,06680058139980592  -0,28574308213649585  -1,1162750917315718  0,13388671875  0,0058358383178710935  0,07639265879566631  0,37199725981883947  -1,38156623817752  -58,044375  150,64174179687498  12,273619751193003  0,9864265736399649  0,14081239035942072  -7,026875  3,2173636718749994  1,7937011099609097  0,16868587582938793  -0,3420656654491623  -57,725625  96,376632421875  9,817160099635485  -0,7064836664272183  -0,8574315819558556
122  0,7700927734375  0,0021590787172317497  0,0464658876729128  -0,35986534797578706  -1,1602236111257314  -0,2943994140625  0,024455794119834885  0,15638348416579956  -0,1153172651827487  -1,1974367590236814  -0,05341552734375  0,0029489973723888403  0,05430467173631418  -0,4036849603223257  -1,213006898218222  -39,62875  37,400923437500005  6,115629439191031  -0,5794300556470532  -0,30607693138297654  -18,9775  19,20855625  4,3827566952775285  1,472756807295004  1,731496069035158  -118,460625  300,3239574218752  17,32985739762088  0,214288500997301  -0,44575296898475214
123  0,88922607421875  0,00039111596941947935  0,01977665212869659  -0,34878664298143824  -0,6528522839383912  0,2025341796875  0,008282808279991154  0,09100993506200933  0,4573156560790202  0,20339308142543988  -0,0530224609375  0,0009649936914443972  0,031064347594057035  -0,08759776720740219  -0,6145386428316302  -46,548125  83,551551171875  9,140653760638514  0,0195348776046084  -1,197406183663879  -16,041875  264,24789492187506  16,2557034582289  0,40515285851760374  -1,2760300648060727  -99,070625  406,27262929687544  20,156205726695575  -1,1266170561023878  0,07847062838588359
124  0,87748291015625  0,0015627575576305397  0,039531728492826365  -0,09629890771159122  -1,165733537323035  0,7309521484375  0,017264099097251896  0,1313929187485075  -1,133198394303632  -0,19205073520924376  -0,31242431640625  0,015951991909742357  0,1263011952031427  0,3146606399566798  -1,2419774004180097  -21,081875  139,43192929687498  11,808129796749144  0,6741947611800055  -0,9278392342513389  -42,481875  66,74228867187497  8,169595379936204  1,8639468325073234  2,628394169227475  -56,260625  1448,1773480468753  38,05492541113273  -0,1325015040280321  -1,5523554917531686
125  0,83323486328125  0,00013054282069206236  0,01142553371585163  -0,9479963973294684  1,7907862025376993  0,67990478515625  0,017026723498105998  0,1304864877989518  -0,6103524836258233  -0,8083747682649811  -0,34380615234375  0,006351511305570603  0,07969636946292223  0,21721374204495816  -1,2091138603920044  29,09  294,24752499999994  17,15364465645712  -0,38080182954080677  -1,0126130547890673  16,668125  226,09271054687503  15,036379569127504  -0,20160538254384125  -1,1034712853862785  59,5725  684,5624  26,164143402756377  -0,4874755176661859  -0,956712455874106
126  0,81871826171875  2,170140147209167e-05  0,0046584763036954125  0,6433272260461133  -0,9232483039999271  0,11684326171875  0,018411063069105133  0,13568737254846205  0,4682469660713153  -1,018052969493732  -0,13332763671875  0,000967137688398361  0,031098837412327184  0,1944388971756524  0,5226830433168557  73,570625  32,297941796874944  5,683127818101133  -1,3340500216689715  0,843843383047195  37,470625  26,694957421874992  5,166716309405326  -0,04189261545940073  -1,5663528636136153  87,310625  10,711598046874997  3,272857779811857  0,0014548157596282816  -1,334551866647348
127  0,7796142578125  0,001136606335639953  0,03371359274298651  -0,5571436008710916  -1,049363787770413  -0,37695068359375  0,019013808363676075  0,13789056662323235  0,5640886462427639  -0,6296651737189265  0,04941162109375  0,0013342093169689164  0,03652683009746283  -0,7716056655423847  -0,02629836869014035  43,518125  933,5994761718742  30,554860107221472  -0,3140489242965384  -1,242166367252451  18,61125  381,3995765624999  19,529454077431346  0,11443609606134038  -1,544484859453119  104,3775  436,3670249999998  20,889399823834093  -0,15121539427054975  -1,3981923417950692
128  0,69465576171875  0,00018830501437187188  0,013722427422721967  0,40228319321752276  -0,848975475203166  -0,7496484375  0,008879794263839723  0,09423266028208968  0,5481954246557282  -1,2889152551002063  0,228779296875  0,003205372905731203  0,05661601280319202  -0,6782403697906915  -1,035087476199486  35,236875  465,86728867187514  21,583959059261467  -0,061541375046529255  -1,6696670693166993  7,601875  34,705285546875004  5,891119210037682  0,11573622707131809  -1,035250988280682  41,19375  310,73964843749974  17,627808951696174  -0,4723786958812203  -0,8583902797330385
129  0,6976953125  0,00035080685615539566  0,01872983865801827  -0,9745668295666814  0,6275165145152184  -0,71545166015625  0,0031685846984386436  0,05629018296682507  -1,1197625782417941  -0,31627462687263863  0,21876953125  0,004926547622680664  0,070189369727051  -0,8040578232980251  -0,6620439959701567  -31,7825  258,925115625  16,091150226910443  0,4157080655061521  -0,6732448058375113  -23,975  192,32085937499994  13,867979642867953  -0,3221699574934533  -1,4030143967952744  -21,023125  82,89075429687496  9,104435968080338  0,8894334125379384  -0,03026056596191884
130  0,72840087890625  0,0028037517726421358  0,052950465273141234  0,15063452188967866  -1,4502561672866754  -0,48533447265625  0,022097612923383716  0,14865265864889102  0,10536942114270537  -1,3540407774948366  -0,03770751953125  0,0007389216125011439  0,02718311263452263  1,341727481072805  2,11885236387338  -75,463125  105,9413355468751  10,29278074899466  0,19266591863547092  -1,0990603506258076  -24,90375  186,29526718750006  13,649002424627964  -0,465445421779413  -1,1492165741718023  -68,825625  283,09580429687514  16,825451087470885  0,5802017890507402  -0,8194574926495672
131  0,80481689453125  0,00013130480647087107  0,011458830938227122  0,18713872535644505  -0,5437223643275946  -0,03689697265625  0,007074051684141159  0,08410738186473979  -0,5050698966074799  -0,9977544780571992  -0,2505419921875  0,007264821028709413  0,08523391947288012  0,03480895830295664  -1,2392917517660271  -65,031875  426,50589804687473  20,6520192244457  0,40563827340930864  -1,2248593163226789  -23,615625  4,411669921875  2,100397562814002  -0,5920909549359513  -1,0838202821372835  -86,33125  12,982226562500003  3,6030857001325964  -0,10260647846777331  -1,7062213432074917
132  0,800458984375  0,0003392146587371825  0,018417781048138848  0,4672038872885745  -0,9325090494885413  0,368505859375  0,03720769643783569  0,19289296627361946  0,380996461896317  -0,6779389940284095  -0,43552734375  0,0016419836044311528  0,04052139687166711  -0,8319526556353632  -0,5825963353652814  -34,5625  398,65015625  19,966225388139843  -0,4254510315793834  -0,6343214841549139  -10,71  237,29410312500005  15,40435338224231  0,43471409531422306  -0,46715537127636786  -85,5275  216,08330625000005  14,699772319665364  2,056247269403624  3,0435703902989113
133  0,919921875  0,001672384738922119  0,04089480087886624  -0,557959477947945  -0,39490575620701573  0,75394287109375  0,003171644657850265  0,056317356630529676  -0,3862402920079177  -0,6292466549893447  -0,2302880859375  0,004410385632514955  0,06641073431693821  -0,730789093224332  -0,2804272557074179  -7,951875  267,51998867187507  16,356038293910757  -1,076328311278864  -0,15401358249372565  14,540625  77,46018554687498  8,801146831343912  0,08873810463666917  -1,5123990100255997  -5,005  934,9621625000003  30,577150987297692  0,4508093831069232  -1,3612206044302702
134  0,839033203125  0,0009196792602539065  0,030326214077162787  0,1469918871305817  -0,8492905578151415  0,518125  0,013462709331512453  0,1160289159283687  -0,6339810033279342  -0,6552814130531179  -0,30825439453125  0,0003817259013652803  0,019537806974307025  0,9055755760610945  -0,05655244684054406  37,31125  288,65132656249983  16,98974180387977  0,11934710769867232  -0,7674523614410518  18,906875  81,14746054687507  9,008188527494031  -0,10639913977250265  -0,9804051258352056  72,26875  239,51042968750008  15,476124504781554  -0,2606402011404645  -1,3813253841759114
135  0,832783203125  0,000194642162322998  0,013951421516211098  -0,9361333684735518  -0,05361765108783567  -0,0452783203125  0,016388739848136907  0,12801851369289094  0,5834289904012284  -0,9238664855985803  -0,05714111328125  0,00759144827723503  0,08712891757180867  -0,8424858134777412  -0,4923875184941182  46,081875  273,612710546875  16,541242714707835  0,25515123018274455  -1,1748468115302861  34,731875  211,66830429687514  14,5488248424701  -0,16681256769921401  -1,3246900118294591  104,35625  317,8108203125  17,82724937595534  -0,3960855465638218  -1,3103479243102691
136  0,7678125  0,0010843228340148931  0,03292905759378627  -0,20561904236588632  -0,7343635134887756  -0,436884765625  0,01841924962997437  0,13571753619180674  -0,19792048771375118  -1,1977062785195507  0,1062841796875  0,003383395934104921  0,05816696600395212  -0,06292620885914849  -1,7807327015836867  54,143125  154,860023046875  12,444276718511004  0,21542242949508575  -0,554275077973859  11,9175  151,57999062500002  12,311782593312799  -0,5313710077843182  -1,1689609986753748  74,91875  92,53589843749998  9,619558120698683  -0,9263297018261143  -0,5777163600639459
137  0,67146484375  0,0004522572517395021  0,021266340816875434  0,6200971025727806  -0,19917070657185887  -0,874140625  0,008121898746490478  0,09012157758545107  0,6040525100420145  -1,018307029823011  0,20384521484375  0,00011477157473564151  0,010713149617906096  -0,7771461706666167  0,005548958890188693  8,020625  588,0182074218749  24,249086733769477  -0,08529268623450055  -0,8879549887329135  -10,245  9,602474999999997  3,0987860526341597  0,2661121852528215  -0,7977191664323935  22,555625  691,3123355468747  26,292819087098184  -0,4094836166637547  -1,1051578614769224
138  0,71502197265625  0,0007035420596599579  0,026524367281048532  -0,23857662884203026  -1,3039347949658044  -0,5996533203125  0,02148112580776214  0,14656440839358695  -0,4296308376687343  -1,1087420108422612  0,05144287109375  0,005895436161756516  0,07678174367489003  0,16124310551745527  -0,9552086025872337  -39,024375  211,705148046875  14,550090997889841  1,3472384102028827  0,8558032740596135  -16,82375  11,391201562500001  3,3750854155858043  -0,1918382671175038  -0,6845931743369698  -69,06375  296,63257656249993  17,22302460552443  0,016480262529506694  -0,4240404531333559
139  0,83242431640625  0,0023783181846141824  0,04876800369724172  -0,6251129693490795  -1,219743776321923  -0,1709814453125  0,0127984442949295  0,11313020947089907  -0,6879806900293878  -1,1242569012525854  -0,0080078125  0,004873485565185545  0,06981035428348395  0,018787546426241076  -1,398103825409607  -32,305625  1194,7724917968744  34,565481217493186  0,34034612563138544  -1,4836341130220405  -11,285  315,6316656249999  17,766025600144786  0,21050738672087507  -1,4203799729144508  -79,1925  575,08981875  23,981030393834207  -0,16352385947847367  -1,6558628755731497
140  0,82722900390625  0,002458273237943649  0,049580976573113694  -0,1663063905247124  -1,7494097562600546  0,085859375  0,004477132415771485  0,06691137732681554  0,9520939261526038  0,8421722523321056  -0,1994580078125  0,01183454511165619  0,10878669547171745  0,014511891636042691  -1,6440221589759956  -24,61875  107,69128906249995  10,37744135432718  0,08846826778553894  -1,5139967779786818  -34,354375  81,32117617187501  9,01782546803136  0,3429992182456278  -0,7166989289242016  -75,166875  78,47453554687499  8,85858541454983  -0,6837586001898348  -0,6844217670703783
141  0,886943359375  0,0076840289592742935  0,0876585931855759  0,6467798306642658  -0,8986717482626108  0,58970947265625  0,033398359268903735  0,18275217992927947  0,11515268498552218  -1,183278778299778  -0,2965771484375  0,01036317536830903  0,10179968255505038  0,4022086536858576  -1,4800960670893828  -17,38  105,127084375  10,253149973300888  0,25846272147225186  -0,7410908022001945  5,063125  391,0596480468749  19,775228141462108  -0,11742184035843854  -1,7667396620083207  -79,995  517,4865374999999  22,748330433242785  0,24204381515780926  -1,3291418886666266
142  0,9809521484375  0,007991901612281796  0,08939743627354084  0,2186723692112413  -1,5445877309910772  0,8034521484375  0,024082710528373706  0,1551860513331456  0,07058787678991059  -1,4441432689305256  -0,19311279296875  0,0023659843146800995  0,048641384794021844  0,6332538229057877  -1,2421939157378148  7,173125  299,51623867187493  17,306537454727184  -0,7491637460599722  -0,7138396469482284  8,1825  36,73880312499998  6,061254253452827  -0,0872199450843265  -0,9044681830174994  38,32375  1066,4906546875015  32,65716850382932  -0,6302627979400077  -0,7641718467282299
143  0,815966796875  0,0005329763889312744  0,0230862814011108  0,44726260372300364  -0,8103621775195995  0,27909912109375  0,03408134066462518  0,18461132322971194  -0,34597883828902576  -1,1865746532605796  -0,13148681640625  0,006683080500364302  0,08175011009389714  0,23213916718590563  -1,2193276881817874  22,963125  30,830788671874988  5,552547944131144  -1,857271555318369  2,673294207058568  33,84  61,071509375  7,814826253666808  -1,030827304814608  -0,5879824692471609  105,4275  164,783728125  12,836811446967662  -0,6466286043992369  -1,0479815410450684
144  0,7957470703125  4,245493412017821e-05  0,0065157450932474496  0,008528915477387574  -1,2564197300866131  -0,27446044921875  0,011190867060422896  0,10578689455893342  0,6746886385344552  -0,7619273336559234  0,096865234375  0,002515469932556152  0,05015446074434608  0,1505892263193987  -1,6583178297944978  45,590625  233,58877929687523  15,283611461198404  -1,2086004993499666  0,07620629665335255  12,638125  142,946038671875  11,956004293737728  0,7978867468789608  -0,47828926511435954  92,15625  316,6307421875  17,794121000698517  0,29800700835529476  -1,3909852052163572
145  0,71882568359375  0,0011720462977886199  0,03423516171699237  -0,6674588169258457  -0,25004786276458013  -0,595009765625  0,010419858360290525  0,10207770746000581  0,48527749743227305  -0,5319961647083322  0,2004638671875  0,0004886358976364135  0,02210511021543239  -0,11631953776413365  -1,553632810353097  49,134375  121,80932617187487  11,036726243405463  0,6262495292583339  -1,0499429264872864  -8,7725  76,73316562500003  8,75974689274753  -0,45014945804655915  -0,8550667656572837  53,375625  180,02081992187502  13,417183755239957  -0,4777088343634355  -1,2330185943762793
146  0,6425341796875  0,0007909648180007936  0,028124096749954364  1,1229122771023112  0,23033902698193298  -0,876220703125  0,014677164554595947  0,1211493481393769  0,5634246992225763  -0,9983422295923008  0,22278564453125  0,0004387717902660368  0,020946880203649345  0,6853429082213173  -0,6507168507166567  -30,34375  478,5035546875  21,874724105403022  1,4633901784197372  1,628311330170657  -1,969375  22,930976171874985  4,78862988461992  0,3552837254280533  -1,0552965447180829  -11,39625  1731,349626562501  41,60948962150943  0,2521467555679005  -1,596584792356932
147  0,76911376953125  0,00039892947077751177  0,019973218838672743  -0,8272618530558804  0,019157248692287077  -0,43804931640625  0,009974188059568406  0,09987085690815117  -0,398196978257248  -1,0270480119730814  0,09204345703125  0,008724016541242597  0,09340244397895912  -0,11602265195091242  -1,2672869041319195  -41,579375  198,9020980468751  14,103265510046782  -0,3971235492002513  -1,4410253766487364  -24,60375  169,14728281249998  13,005663489899312  0,5244257120596821  -0,8022541505261542  -73,239375  96,08695742187501  9,802395494055268  0,5852634196447234  -1,0743581400652995
