ventana  acc_x__mean  acc_x__var  acc_x__std  acc_x__skew  acc_x__kurtosis  acc_y__mean  acc_y__var  acc_y__std  acc_y__skew  acc_y__kurtosis  acc_z__mean  acc_z__var  acc_z__std  acc_z__skew  acc_z__kurtosis  gyro_x__mean  gyro_x__var  gyro_x__std  gyro_x__skew  gyro_x__kurtosis  gyro_y__mean  gyro_y__var  gyro_y__std  gyro_y__skew  gyro_y__kurtosis  gyro_z__mean  gyro_z__var  gyro_z__std  gyro_z__skew  gyro_z__kurtosis
1  0,60658935546875  0,005775635355710986  0,0759976009865508  0,10213165706481513  -1,489016178386052  0,56384765625  0,05925457415580751  0,2434226245766969  0,0841408541070424  -1,3446298086553847  -0,42790771484375  0,006717254275083541  0,08195885720947761  0,2777820978184025  -1,39296387093002  33,36625  392,8639859374998  19,820796803799283  -0,03359575512952  -1,3769721727498203  44,061875  201,35988242187494  14,190133277100498  -0,19751724019912378  -1,4226403685921662  100,034375  496,889091796875  22,29100921440918  -0,6328924278260468  -0,16958395520260705
2  0,7340234375  0,001588561916351319  0,039856767510064325  -0,649144619087546  -0,8495372137840609  -0,04976806640625  0,03966221854090683  0,19915375603012572  0,05912901665936742  -1,7566769111789304  -0,1322412109375  0,011890006327629099  0,10904130560310207  0,015733395960022163  -1,5062602644587726  74,83875  453,06446718750004  21,285311066261166  -0,5343400588068705  -0,5823113185787121  68,380625  12,107351171875003  3,4795619224084806  1,1184832337719297  0,23082819424722967  101,25375  943,8164703125  30,721596155025864  -0,17562810521705238  -0,6945377108851489
3  0,9429443359375  0,013006491065025329  0,11404600416071284  -0,23788951719566728  -1,3738915048369356  -0,74298095703125  0,13478433057665826  0,36712985519657515  -0,06994512893339842  -1,2819550674015174  0,17869384765625  0,004301086968183514  0,06558267277401489  -0,7198151178964562  -0,34130462501086223  59,73625  633,8075453125001  25,17553465792733  -1,0594046845029959  0,10995300180837697  39,945625  618,127316796875  24,86216637376709  -0,41026340483612533  -1,2302635257027252  77,540625  644,6141699218751  25,389253039856747  -0,5588109002261371  -0,2561482371449255
4  0,89178466796875  0,005058496445417404  0,07112310767547636  1,2572437291318397  0,5954055733101375  -0,9236767578125  0,05258108589649199  0,22930566041092834  -0,4093713139414923  -0,9451444041892736  0,21772216796875  0,00044810330271720904  0,02116845064517498  0,1188329234324588  -0,6427331836668957  -80,128125  1480,5732324218757  38,47821763572055  0,6142068151899307  -1,0803978218368346  -29,99125  172,0571109375  13,117054201973094  0,20841033225336333  -0,9739709392647113  -71,319375  1259,0018667968743  35,48241630437356  0,16330584624392375  -0,37640535530448105
5  0,56297607421875  0,01535743519663811  0,12392511931258371  -0,3092172959048233  -0,3965438821988281  0,04016845703125  0,11517869288325305  0,3393798651706566  -0,1765537495387724  -1,3968412033131241  0,03535888671875  0,008555566138029096  0,09249630337494086  -0,3868001576712086  -0,8456439022688942  -111,330625  25,494866796875012  5,049244180753691  -0,48510404747053554  -0,8707095153336626  -76,665625  316,8960449218751  17,801574225946286  -0,5838644038452844  -0,8047625094904003  -189,16125  260,7011078124999  16,14624129054499  1,0173444620896548  0,849677611258985
6  0,2386279296875  0,0012029506921768182  0,0346835795755977  -0,15379873854403261  -1,399410996004371  1,21879150390625  0,14077942258715626  0,3752058402892421  0,06985211705762764  -1,0069957687415558  -0,33142333984375  0,013678304547071456  0,11695428400478307  -0,46840747425184265  -1,174882215765995  -52,064375  1169,8928480468758  34,203696409114556  -0,28707100702521  -0,7426745960420233  -31,4125  1822,0705468749989  42,68571830103131  -0,3850457603861204  -1,3340143509242777  -129,148125  2971,4424730468745  54,51093902187775  0,2511956198169826  -1,2737823523376974
7  0,2455126953125  0,026021020150184645  0,16131032251590302  -0,06784698413570732  -1,5935004406487276  1,11194091796875  0,26966188251376155  0,5192897866449537  -0,03174350765963375  -1,47911335221955  -0,23378173828125  0,009182178086042407  0,09582368228179507  -0,3603601637610477  -1,0678192577195489  66,146875  960,035654296875  30,98444213305889  0,004356193511343833  -0,960303798239083  41,68375  562,7669390625  23,72270935332851  -0,5297721315804824  -1,3964446896177853  144,055  4186,076037499999  64,6998920980553  -0,9335427132584252  -0,2845204038640996
8  0,68029052734375  0,008960729187726972  0,09466112817691838  -0,33704853120530087  -1,4995612565787089  -0,06103759765625  0,06427710711359977  0,2535293022780597  -0,3578563725085441  -1,3807557680348888  -0,02722900390625  0,011030158346891411  0,10502456068411527  0,08136781921590552  -1,2793204076959495  122,58875  229,5531390625  15,151011156437711  0,322802911478607  -1,1316017282638942  66,075  104,22031249999996  10,208835021685871  -0,4940826683391981  -0,7893665067103561  148,660625  689,083613671875  26,250402162097917  0,1356844814812976  -1,3562456800997167
9  0,94506103515625  0,005426382368803023  0,07366398284645641  -0,8828318249408257  -0,6256548079328841  -1,16879638671875  0,09403177725672726  0,3066460129477102  0,44461738145909147  -1,0476324953204428  0,17775634765625  0,0011479259669780726  0,033881056166803196  -0,10379071110813863  0,635626241169537  11,118125  4091,923585546877  63,968145084462755  -0,14482973665804078  -1,147572953387587  7,50875  563,8668765624998  23,745881254703935  0,2040262507458436  -1,099303307759862  48,646875  8165,776591796875  90,36468664139147  -0,12647888221705197  -1,7309254043696223
10  0,7106103515625  0,016459428334236147  0,12829430359231134  -0,12835488616720397  -1,023995198152917  -0,29472900390625  0,11274301325678826  0,3357722639778162  -0,22534849256840597  -1,0934106189744996  0,0240966796875  0,020592373013496396  0,14350042861781423  -0,40279742521642686  -0,9695956381222306  -101,7875  437,58398437500006  20,918508177568498  0,5453739990591906  -1,2087589497323405  -62,05  223,451953125  14,948309373470968  0,4802529435123527  -0,781484248566541  -166,92125  2166,8069234375007  46,5489733875786  -0,016763000133348426  -1,4477271923096344
11  0,2337109375  0,030910433626174943  0,17581363322045007  0,2085839810168988  -1,5799277856981409  0,9874169921875  0,18851735761165636  0,4341858560704809  -0,17796785848838287  -1,447979498919361  -0,3871240234375  0,01540739204883575  0,12412651630024807  0,07383089569177743  -1,4046224466671502  -30,803125  1101,9526855468753  33,19567269309172  -1,0818560394233154  -0,43837165177252535  -54,623125  176,22620742187496  13,275021936775659  0,40801364885701424  -0,7163881749991572  -188,80625  5374,4095703124985  73,31036468544198  1,0281926105389316  -0,0943327700280765
12  0,172119140625  0,035818513631820675  0,18925779675305499  0,4613413630964694  -1,2067902038507674  1,11640380859375  0,11888716732859607  0,34480018464118617  -0,42302571727614785  -0,878717628892054  -0,43645751953125  0,01677437645792961  0,12951593129005254  0,3961109319876869  -1,1367260100152703  10,953125  322,044091796875  17,945586972759486  -0,11598789525317683  -0,8368128748823946  27,51875  850,1492578124994  29,157319112231484  -0,641172038172093  -0,8778012039190841  141,31  4607,207650000003  67,87641453406333  -0,2740736908488641  -1,1079523890017826
13  0,66287353515625  0,003466330355405808  0,058875549724871426  -1,3758925293009374  0,7599633716619318  -0,08769775390625  0,07152882134318352  0,26744872656863317  -0,353492203898561  -1,0207001207962574  -0,18925048828125  0,00637345797419548  0,07983393998917679  0,7998880509580496  -0,2463384259233563  98,225625  521,5112417968751  22,836620629963512  -0,229317922038882  -0,4837117732917364  52,9525  106,87875937500002  10,338218384953958  0,6811391966075961  -0,1479690052018583  183,54125  638,9549390625001  25,277558012246754  -0,011149589821642436  -0,8893929297911645
14  0,90518798828125  0,004869773834943771  0,06978376483784585  -0,7074546375112428  -0,5044278808444704  -0,9905078125  0,06500086102485655  0,25495266428271846  -0,2664386658516989  -1,5186744229100513  0,08162353515625  0,010367772644758235  0,10182226006506748  -0,9657339524320468  -0,5352322343125491  32,528125  3164,095263671876  56,25029123188498  -0,15805656851211897  -1,4439235922658455  15,829375  810,4878011718752  28,469067444717524  -0,057295659526857105  -1,3314782343698652  47,350625  3623,579601171876  60,19617596801209  -0,8048806469562111  -0,16013437915225737
15  0,72467041015625  0,009296058863401412  0,0964160716032416  -0,9043731676298897  -0,6234953807980115  -0,540625  0,0872025346755981  0,2953007529208114  -0,16445548657297554  -1,195915151981692  -0,00076904296875  0,004073462933301924  0,0638236863029857  -1,1835256115277661  0,05881959520797908  -116,814375  327,8848011718751  18,10758960137641  1,8278541795528778  2,849534503328491  -44,619375  229,12071054687502  15,136733813702183  -0,3795621541600696  -1,3692376599674922  -150,37375  2125,446795312501  46,102568207340695  -0,4426168776677998  -0,8570729258592062
16  0,09232421875  0,08383432712554933  0,2895415809958033  0,12620303282046189  -1,5316158419271795  0,93266845703125  0,3806884983718395  0,6169995934940634  -0,04011431056757051  -1,531130418148527  -0,33763427734375  0,033258125036954876  0,18236810312375043  -0,24734327845182083  -1,5012489656900085  -51,291875  1051,6988324218757  32,42990645101949  -0,3039959716531739  -1,1976757203609045  -59,67625  275,2004203125  16,589165750950226  2,070313375085701  3,603909482513423  -229,165625  15309,871513671877  123,7330655632191  0,9933483277199138  -0,42092831590785185
17  0,142861328125  0,04815585818290714  0,21944443074023806  0,03661835608283624  -1,496323698913017  1,14451416015625  0,18135386497378353  0,4258566249030107  -0,35919363682081545  -1,2710453052122848  -0,31345458984375  0,016046893709897994  0,12667633445082785  -0,12551574726834272  -0,7431962108555537  14,8075  841,5638812499997  29,009720461424646  0,8608124623517214  0,40963227937107183  21,63  83,55372500000004  9,140772669747347  -0,05110761725634961  -0,8024698700983803  197,505  7648,289349999999  87,45449874077376  -0,43718162564946683  -1,3944532383907517
18  0,66417724609375  0,008335463351011275  0,09129875875942277  -0,3381440222320952  -1,3201674882285241  -0,23508544921875  0,0979851258933544  0,3130257591530678  -0,23074251138389565  -1,2355523962486636  -0,1644873046875  0,0029717571973800648  0,05451382574521866  0,3273242781803055  -0,6218605819894107  128,566875  596,5215824218756  24,423791319569442  0,6453913438909391  -0,6892749277098842  32,74875  70,79070156249996  8,413721029514821  -0,5205343007807711  -1,168200161893089  167,813125  1801,0362105468741  42,4386169725979  0,686286895668681  -0,5063413422160554
19  0,871435546875  0,0019310653209686274  0,04394388832327685  -0,6088932134529781  -0,5114965741915443  -0,99055908203125  0,0170292068183422  0,13049600307420225  -0,29499274328111386  -1,3274012298871511  -0,084912109375  0,001290533542633057  0,035923996751935285  -0,3786668013442712  -0,8681717216164482  7,701875  2880,1500667968735  53,66702960661111  0,14117091817304075  -1,3989819031215551  3,27  137,55842812499998  11,72853051856881  -0,2768965454703404  -0,6591316246514265  9,8275  3784,867978125  61,52128069314715  -0,5313838051418605  -0,992666851073952
20  0,725361328125  0,005988374567031862  0,07738458869201194  -0,36332838034978077  -1,2928483370225907  -0,322734375  0,05874547204971312  0,24237465224258317  -0,046466324056132886  -0,9597962997496481  -0,17305908203125  0,0025544445216655726  0,050541512854935126  -0,45555304428535487  -1,4144551657634947  -86,835  21,229181250000007  4,607513564819968  -0,431192138195325  -0,42460493624575424  -32,255625  64,517507421875  8,03227909262838  0,3404253585437958  -1,5293730738236166  -171,91625  1080,0591578125006  32,8642534954394  0,5363243432776401  -1,129052408306163
21  0,226376953125  0,08533954634666442  0,2921293315411248  -0,5519509266984042  -1,012109344870564  0,80209228515625  0,2123511501014232  0,4608157441987233  0,21630314884830426  -1,1685916323452503  -0,27264404296875  0,010083831995725632  0,10041828516622674  -1,0598634640073021  -0,27128494261844294  -23,9425  2764,8665375  52,58199822657941  0,10563151193556776  -1,563916832019457  -28,84  120,06986875000004  10,95763974357617  -0,043790334645084944  -1,434390904497206  -267,47375  1079,5157171875  32,85598449578859  0,35527794737201707  -1,2775984991550717
22  -0,1864794921875  0,05345840976238253  0,23121074750621462  0,21388191400274464  -1,3976363203341715  1,36689453125  0,11139926791191103  0,33376528865643146  0,263805136961597  -1,4732645031882425  -0,4965283203125  0,011960299706459043  0,10936315515958307  0,45180840998927546  -1,0044730807201945  3,634375  199,25213867187486  14,115669968934343  1,2040031203329178  0,9980057252981682  16,156875  450,92605429687507  21,23501952664219  -0,38730986104363563  -1,5618757787528323  104,85875  15565,596610937508  124,76216017261608  -0,913478020416087  -0,28990837529570745
23  0,495  0,021000482416152953  0,14491543194619735  -0,14047024166671224  -1,0093177019087918  0,19801513671875  0,20542685658335677  0,45324039601888616  -0,12561970584545235  -1,4229636974469038  -0,20058837890625  0,0037799798190593713  0,061481540474026604  0,7017939568231293  -0,7970875246003626  57,575  2644,939765624999  51,428977878478186  0,4065232833964307  -1,539436539346723  31,23  6,907881250000003  2,6282848494788387  -0,9257235731273199  0,9106133859543868  283,40375  3283,770345312499  57,30419134158076  -1,2473104749215267  0,9784308157940029
24  0,77139404296875  0,0025685818850994108  0,05068117880534559  0,9309065004160686  0,011669468585807419  -0,776513671875  0,08967815160751344  0,2994631055865037  -0,7434315958438129  -0,7795361879236533  -0,09685302734375  0,004670714491605757  0,06834262572952372  -0,777575499258482  -0,6075453357034246  86,179375  1628,2217699218763  40,35123009180608  -0,2676722156649958  -0,7544472470637027  15,309375  58,46534179687497  7,646263257099834  0,024910686896082987  -0,9147262366798885  84,485  403,6980562499999  20,092238706774314  -1,423457207231329  1,8161482903286545
25  0,82313720703125  0,0010762670695781706  0,03280650956103332  0,08756906003044258  -0,09104519750766293  -0,8428662109375  0,10349209043979649  0,3217018657698405  -0,3219608633486255  -1,1972025137458984  -0,01974609375  0,0009284618854522704  0,03047067254676651  0,03912540843002474  -0,9349173751155555  -72,89125  720,4222359375  26,840682478981417  0,7939487237738628  -0,850906642659258  -14,995  162,093021875  12,7315757813006  0,04747254575938227  -0,4445104128883641  -112,83125  3188,4565234375023  56,46641943170739  0,5535870912739357  -0,4539925144454293
26  0,53577392578125  0,018724923676252368  0,1368390429528516  -0,5761892370855527  -0,7909096649025211  0,16429931640625  0,10388879234194752  0,32231784366048916  0,053293105453982734  -1,1677025072163236  -0,15251220703125  0,0019910057723522196  0,04462068771715895  -0,7284973156062098  -0,5639372795027593  -96,86125  221,0230921875  14,866845401345236  0,5153957468805265  -1,0549739594658931  -52,285  19,074400000000008  4,3674248705616  1,1373884497417963  0,9093697149610191  -226,665  381,547853125  19,53324993760639  0,09280827042781338  -1,6407972163551956
27  -0,06928955078125  0,014957135552167879  0,1222993685681487  1,0180189860359141  -0,008531901520991259  1,45959228515625  0,11101151644587517  0,3331839078435139  -0,5665142248582341  -0,9394133684837702  -0,2984326171875  0,01027027342319488  0,10134235749771603  -0,20668645944746875  -1,3567813891658886  -35,346875  430,86034179687493  20,757175670039384  1,605790879250411  1,6158781568025091  -20,39125  708,0566109374998  26,609333154694045  0,3324389585074321  -1,6408885093344923  -105,58625  11756,114357812497  108,4256167047829  0,01826056690719089  -1,4178252961951359
28  0,26165771484375  0,032748434990644455  0,18096528670063897  -0,17690059806094446  -1,2885718107534443  1,0190087890625  0,1511026966810226  0,3887193032009378  -0,1690448885335055  -1,41757683931336  -0,15793212890625  0,0018096910655498492  0,04254046386147957  -0,5696898207862243  -0,8560289901417075  41,849375  683,5218042968747  26,144249927983683  0,6665662099625118  -0,217543206982314  6,24  77,47833749999995  8,802177997518566  0,6788026024321677  -0,9343551552327591  209,255  3270,6141937499965  57,18928390660261  -1,052750324183041  -0,159385663676197
29  0,62478759765625  0,002563215082883834  0,05062820442089403  0,3486759507339184  -0,9883947121480237  -0,1114013671875  0,05962550342082977  0,2441833397691779  -0,2381953503253956  -0,808397037163322  -0,2321240234375  0,0005357463121414184  0,023146194333873084  0,2445859671226796  -1,0080865606918645  131,40375  154,52932968750008  12,43098265172549  0,1414721125224486  -0,24825854262673097  21,068125  19,585554296875006  4,425556947647946  -0,12808805102797224  2,420368628771193  147,9675  1205,7862093749995  34,724432455765196  1,0224194624732046  -0,2603120838603217
30  0,86875  0,010339353084564209  0,10168260954835988  -0,2879375867717717  -1,3520390699171836  -1,00126220703125  0,04899541026949882  0,2213490688245578  -0,08451600726755686  -1,3439159597941648  -0,09731689453125  0,004032530659437177  0,06350220987837492  0,3200183151127193  -1,3171345182950163  33,529375  2710,1538636718738  52,059138138004876  -0,018568623708027816  -1,758473745004302  15,993125  92,08358554687499  9,596019255236778  -0,8571611411409589  0,4567691464382322  40,345625  3941,6678480468745  62,78270341460994  -0,6148843178056226  -0,5038278814419428
31  0,77436767578125  0,008811815613508233  0,09387127150256479  -0,11214313495477717  -1,5740213408730572  -0,507939453125  0,03767757711410522  0,19410712793224577  0,1900719538678046  -0,6644123614058541  -0,14136962890625  0,004676402062177656  0,06838422378134927  -0,13444863655989708  -1,5097702837836526  -96,915625  495,757451171875  22,26561140350462  1,2300144144459615  1,2859417837461713  -25,260625  63,66797304687504  7,979221330861492  0,6240738285463698  -0,65227902738842  -119,285  1015,3933062499995  31,865236641989643  -0,2965046844512289  -1,6372862063997173
32  0,47277099609375  0,021517196244001405  0,146687409971004  -0,35943624517104705  -1,3129957113813928  0,46730224609375  0,10141691953539848  0,3184602322667596  -0,19870071538652656  -1,3497792515738662  -0,18594482421875  0,005798615998029708  0,0761486440984323  -0,9711429965700766  -0,7436231556154094  -101,58625  117,30006093749996  10,830515266482013  -0,9193666475345448  1,0862093893340168  -35,049375  83,53103867187508  9,139531644010818  0,297335768577293  -0,7942877831110651  -192,816875  375,17650429687507  19,369473516254256  0,4730475087711004  -1,1172032665425804
33  0,05289306640625  0,010225488394498838  0,10112115700731888  0,511126584882124  -1,222667607965273  1,570771484375  0,11012689266204832  0,33185372178423483  -0,3869055452935437  -1,2302876765790294  -0,16390380859375  0,0056842915713787145  0,07539424096957748  -0,3223336411943847  -0,4600088345331912  -14,98  873,2557718749998  29,550901371616398  0,4535235999774586  -0,9039125487471407  -0,270625  100,386488671875  10,019305797902119  0,03403830279599685  -0,9561835000123771  -59,22875  13338,579782812489  115,49276939623748  0,1860528787852332  -1,5177639479950136
34  0,31919189453125  0,02565896880030633  0,16018417150363617  0,042505064821747374  -1,2077509685122625  0,7885546875  0,13075285634994516  0,3615976442815207  0,0003647583944492044  -1,5192912326071406  -0,16450927734375  0,0012032676398754123  0,03468814840655829  -0,9117033292720075  -0,3358906644439754  60,59125  244,19495468750006  15,626738453288967  -0,027544037304179977  -0,7451181405927123  29,885  69,02044687499999  8,307854528998446  -0,5587776498430017  -0,05461241875384859  188,718125  455,25816367187514  21,336779599364924  -0,6327949001720449  -0,9160631812695073
35  0,6930419921875  0,0016891819238662724  0,04109965843977627  0,358558169435837  -0,6825837349837225  -0,32582763671875  0,22086345683932315  0,4699611226892318  -0,6790237794884155  -0,6782477532601368  -0,0869775390625  0,0008475787878036492  0,029113206415708477  -0,6396115226871163  -0,5363041014932155  115,548125  127,10834804687504  11,274233811965894  -0,4192020911280357  0,0170932709912206  17,629375  256,3475199218752  16,010856314447242  0,4050859988459119  -1,4578766270327834  208,071875  1010,9833105468755  31,79596374615614  0,33275346158300706  -1,4920049887980422
36  0,81676025390625  0,000893301218748093  0,029888145120567335  -1,2778468426959366  1,1854041499077583  -1,07031982421875  0,08123132402300834  0,2850110945612615  0,027579938535850203  -1,3728378664424634  -0,0783056640625  0,00199137761592865  0,04462485423985887  -0,5060472072388047  -1,0044394513578228  -16,58625  2958,3125609374997  54,390371950718446  0,4600035155858684  -1,3247016323811518  3,545  102,94359999999998  10,146112556048251  -0,17794322404924812  -0,9246273621572483  -29,33125  5798,463554687499  76,1476431328475  1,1008211470695959  0,41026147779169575
37  0,70172119140625  0,005363505333662033  0,07323595656275703  0,3241655735978861  -1,473839719199922  -0,245703125  0,060738455057144154  0,2464517296696133  0,2199833780842364  -1,1625935615862402  -0,137578125  0,0020350008964538577  0,045110984210653814  -0,5214697549651148  -1,2221955320718711  -89,96  159,58410312499996  12,63266017610701  -0,34959907913226385  -1,1905191275789488  -25,26875  45,256289062499974  6,727279469629605  0,27648943495350287  -1,2311903739699233  -176,745625  632,9851761718746  25,159196651957604  0,9498544321435458  -0,35770147079456294
38  0,24467041015625  0,05451186067461967  0,23347775199067614  0,1404123266601638  -1,4879063795714598  0,98343017578125  0,2319402666747571  0,48160177187667935  0,04529908259147679  -1,421592838462843  -0,213955078125  0,006965532922744756  0,0834597682883481  -0,15826093935217478  -1,6590349662057984  -44,66  487,9091656249997  22,08866599921778  -0,7758178183430977  -0,60515010178979  -29,73875  11,7340921875  3,4255061213636737  0,017209067471445242  -0,04441744499150113  -218,754375  5172,958144921875  71,92327957568311  1,202646436082411  0,237044463161451
39  0,17669677734375  0,024681829661130906  0,15710451827089794  0,16336109054371342  -1,278845649964128  1,36859375  0,07072098269462587  0,2659341698515365  -0,30698522330258393  -0,8152444825581293  -0,21625732421875  0,004847576969861983  0,06962454287003961  -0,4431434863932044  -0,7790139895789063  3,231875  681,5841636718753  26,10716690244032  -0,807757768572446  -0,6294438442822581  -5,00125  130,89648281250004  11,441000079210735  -0,9347460666861894  0,29796899627569706  121,818125  5685,599773046876  75,40291621049465  0,004411301889461839  -1,3087991987135352
40  0,5882421875  0,0021239832878112803  0,04608669317505087  0,018348905355362405  -1,1406634765489945  0,28518798828125  0,06560627300143243  0,2561372151824729  0,13158009307831614  -0,6272068676851941  -0,22176025390625  0,008979439800977703  0,09475990608362644  0,14468280691098612  -0,9033233846047684  84,17125  1219,9443453124993  34,92770168952574  -0,43931313211375345  -1,4437509255508256  -11,1725  115,05977500000004  10,726591956441712  -0,5353021885296834  -1,024775197170929  179,59375  2133,3316015625  46,18800278819707  0,4045173458577314  -1,399636975397585
41  0,78586181640625  0,010365822190046314  0,10181268187237931  0,28596467335554493  -1,320610218445619  -0,70980712890625  0,03535331208109854  0,18802476454206382  0,8849678908923582  -0,6087188930641605  -0,30662353515625  0,002493648833036424  0,049936447941723125  -0,49659378577111724  -0,8849135592583011  64,7975  1317,7856343749993  36,3013172539923  -0,5572306386438841  -0,9352513826790592  11,100625  63,38069492187495  7,961199339413311  -0,3493943728748655  -1,3726743526916745  81,63875  3229,5752796875036  56,82935227228535  0,29571560598557534  -1,3376332138659879
42  0,8608544921875  0,005577075266838073  0,07467981833693808  0,15219606878117922  -1,5270418277287767  -0,65588134765625  0,01157113134264947  0,10756919327878903  0,27349006786147834  -0,40485103897824537  -0,22919677734375  0,0010840657889842984  0,03292515435019703  -0,024663791863544973  -1,1996042897413293  -52,88875  679,4047328124994  26,065393394547097  0,38417517913257115  -1,347121945162644  -0,67125  66,62036093750001  8,162129681492448  0,5419142406800194  -0,7296452860994456  -69,363125  2089,2444292968758  45,708253404575366  -0,8233737740969408  -0,28463417258853374
43  0,56854736328125  0,016174695318937303  0,12717977558927088  -0,46386596591919976  -0,9018361539958515  0,3117333984375  0,1656118989229202  0,40695441872883037  -0,020492249974049647  -1,1051600506208281  -0,15497802734375  0,0017154136836528776  0,041417552844813  -0,10851362617708679  -0,5906604695666924  -64,144375  567,1138824218749  23,814152985606583  0,4809565374328796  -1,0205766448772484  -7,97625  77,2865453125  8,791276659990857  -0,20101000067020944  -1,4383476664271957  -232,00875  411,8965640625003  20,29523500880195  0,7387831058595912  -0,32579353550516865
44  0,10111572265625  0,007700678175687789  0,08775350805345498  0,9601023244448919  -0,11119442519811029  1,4499658203125  0,03484009244441989  0,18665500915973268  -1,125980073535682  -0,1530256229336553  -0,27044189453125  0,0027657411754131293  0,05259031446391179  -0,6347347160863679  -0,612977875193998  -21,380625  438,53047617187474  20,94111926740963  -0,17080288806609104  -1,5049377640183281  -18,694375  310,06639804687495  17,608702338527817  -0,1572818009025902  -1,214094457642423  -42,3125  11300,500234375  106,3038110058854  -0,3501536534138952  -1,1321108917439011
45  0,4476611328125  0,023206506705284114  0,15233681992638587  -0,6765208283826705  -0,7649866866765103  0,6986376953125  0,23800435278415694  0,4878568978544394  0,05966671911989029  -1,425106634706122  -0,1330029296875  0,004731666541099546  0,06878711028310135  0,2344788960121676  -1,4221446608801553  56,455625  1642,0429136718742  40,52212869127033  -0,07764659904663676  -1,5270357038120037  -11,39375  62,514179687500025  7,906590901741409  0,2088719310711209  -1,2977218640098653  212,2575  1405,0585375  37,48411046696987  -0,3038650640910153  -1,1059934500558646
46  0,72230224609375  0,0041034166514873505  0,06405791638421711  0,6382545801416066  -0,2882401136598358  -0,44814208984375  0,08236960183978083  0,2870010484994451  -0,0004249111517204048  -0,7683521019431998  -0,326650390625  0,003291829729080201  0,05737446931414879  0,03878583446372252  -0,7437097743326455  87,55625  736,1433984375002  27,131962672049735  -0,735461618712681  -0,47613418265001695  -2,8825  36,16689687499999  6,01389199063302  0,46322062600680186  -1,3002258207562385  116,108125  823,1559261718754  28,690694069190368  0,13331658066907381  -1,005067020431561
47  0,8809765625  0,002098231887817383  0,04580646120164035  -1,2480918604547502  0,4513857765382494  -0,75772216796875  0,08844430524706842  0,2973958729489507  -0,15738076394328057  -1,5000040152239758  -0,2728955078125  0,0023719603776931756  0,048702775872563726  0,09765425042850984  -1,007059882756397  -39,8125  1024,7321875  32,01143838536469  0,02362640558482021  -1,4644081235633961  5,80875  88,20100156250001  9,391538828248542  -0,4719835133679405  -1,3146570377404132  -36,22625  3186,9729515624986  56,4532811408026  1,353432624895606  0,34129069731890294
48  0,69213623046875  0,0009699374377727512  0,031143818612571438  -1,3764498017563005  2,089584268709501  0,0295751953125  0,09255248429775237  0,3042243979330921  0,3210037813018747  -1,3975459528523229  -0,24108154296875  0,00829791600108147  0,09109289764345775  0,32176765283105074  -1,5335317827507196  -79,5125  37,82328125000001  6,150063515932174  0,462351704821927  -0,5295057991147392  2,60375  101,32118906249997  10,065842690132802  0,009054443789675232  -1,455861546566528  -163,700625  944,7504917968753  30,736793778741387  1,0209988639600653  -0,3024220820130754
49  0,25458984375  0,036034547090530424  0,18982767735641298  0,38367402699834696  -1,2983071347197217  1,04962890625  0,0901372838973999  0,30022871930813  -0,1100440935142565  -1,5520105930571237  -0,275654296875  0,005857829666137695  0,07653645971782137  -0,27989790550834454  -1,1490622148189578  -10,755625  648,254851171875  25,46084938040903  0,33372864293491106  -0,8703816386265757  -3,91625  82,88072031250002  9,10388490219972  -0,2459320918702706  -1,2488331722078  -180,55625  6400,636523437498  80,00397817257276  0,46599085961568965  -1,2808601013509606
50  0,25413818359375  0,030140012949705124  0,17360879283522804  0,19153425978265232  -1,5041324667068914  1,2100390625  0,1509142695426941  0,38847685843907626  -0,4106838075039863  -1,3460196774093522  -0,14338623046875  0,003061810368299486  0,055333627825215705  -0,37158021544287734  -1,2243891518439582  4,031875  499,17691367187484  22,34226742458954  0,5931252780925029  -0,9834443856105439  -4,6025  109,93988437500003  10,485222190063501  -0,14367549004957442  -1,5411550547232225  153,488125  9843,42146054688  99,21401846789031  -0,7029955174756048  -1,065567066796344
51  0,59788330078125  0,0008243241965770722  0,028711046594944466  0,14312451001116908  -1,3567305409368386  0,148330078125  0,05796672501564025  0,24076279823851576  -0,47972692357130314  -0,7072811854973153  -0,21113037109375  0,0024661508738994596  0,04966035515277211  1,0765618727089834  -0,06924788373057744  98,846875  743,7200292968748  27,271230799083398  -0,9446199012581565  -0,4742818784398515  -3,750625  125,70300742187499  11,211735254717487  -0,5077419443381512  -1,3763322693506475  162,2025  792,6818062500001  28,154605418119434  0,6151047116277756  -0,47214926618561615
52  0,77610107421875  0,010521069878339768  0,10257226661403056  -0,03808204565844575  -1,5683715839638073  -1,02037353515625  0,0837146811187267  0,28933489440219046  0,7516167409286578  -0,6919647414018728  -0,278818359375  0,0024392854213714597  0,049389122500520896  0,430898168573303  -0,7120049209326251  45,28  2736,7072249999997  52,313547241608454  -0,24156329495487247  -1,1983778603136974  7,798125  83,20444179687497  9,12164687964158  -0,2574833992195515  -1,427001762123111  76,403125  7141,495576171878  84,50736995180881  -0,2529322568386678  -1,5451160415198242
53  0,7961572265625  0,0036651573419570964  0,060540542960540886  0,26506203762925085  -1,283731453616215  -0,500859375  0,03374025640487671  0,18368521008746652  -0,10595034057868748  -0,4393053809969567  -0,19652587890625  0,0013756244838237757  0,0370894120177683  -0,014319052593987292  -1,3591933300546313  -75,06  265,32749374999986  16,28887638083118  0,6999798593294968  -1,0445911002579475  0,38  35,50739687500001  5,958808343536484  0,3383110440607592  -1,2435448765900077  -111,531875  964,746523046875  31,060369010153035  -0,7101377358643689  -0,5794920768201854
54  0,6060498046875  0,012208041882514953  0,11049000806640821  -0,6066430791643668  -0,8779670042680059  0,38117919921875  0,08531383478045465  0,2920853210629638  0,16140039383493707  -1,0087050391884544  -0,1453173828125  0,0009022123575210574  0,0300368499933175  0,24753470701790162  -0,6186557002326896  -80,735625  401,61451992187506  20,04032235074763  0,7636114435428406  -0,6569477625494442  -6,04125  31,869704687500022  5,645325915082319  0,07682100475315087  -0,4007640541275075  -182,314375  223,32331679687493  14,944006049144752  -0,5802918088164908  -1,1917397222964212
55  0,33124267578125  0,0006394205749034881  0,02528676679418482  0,16749875093868163  -1,634902360497795  1,38467529296875  0,029534605330228784  0,1718563508580023  -0,9447826008553148  -0,09967018674148775  -0,10640869140625  0,006973605602979668  0,0835081169885878  0,5205650031020873  -1,1563625690531807  -28,566875  847,6177542968749  29,113875631679043  0,8491217416397145  -0,8357809100938232  -2,1025  30,396525  5,513304363083903  0,39867700382596716  -1,0136413460343745  -49,65625  6051,9002734375  77,79396039177784  -0,2503769404135396  -1,0326127433244756
56  0,54384033203125  0,010535978382825854  0,10264491406214851  0,01884153925597765  -1,2056527925794294  0,82464111328125  0,11342176777720453  0,3367814837208313  -0,15126073678286892  -1,231370214577057  -0,07534912109375  0,0001177390277385712  0,010850761620207643  -0,6325953191272871  0,7388970621032747  49,36125  397,1645765624999  19,928988347693416  0,7036964630895688  -0,5839493835884713  -8,033125  10,870504296875001  3,297044782358135  -1,2475371659904484  0,295025172902871  165,583125  954,2225042968754  30,89049213426156  -0,7462511890052317  -0,4815452170660861
57  0,69749267578125  0,0005133381545543671  0,022656967020198603  0,08539620360823129  -0,8449110519504734  -0,1594580078125  0,09353729608058928  0,30583867656100866  -0,22544963757828837  -1,3574559786151426  -0,2562060546875  0,005697919344902042  0,07548456362000142  -0,0069293914390241166  -1,0056546900224008  108,44375  237,0485546875001  15,396381220517375  -0,2638609161695618  -0,9024468551798988  -18,170625  14,132879296875  3,759372194512669  0,19694878280991215  -0,1705559063572255  128,49625  288,08826718750004  16,973163146199358  -0,8991800503482087  0,9368403325606587
58  0,8536474609375  0,008963981175422665  0,09467830361504512  -0,20472432708239235  -1,5496758802980992  -0,7397314453125  0,03923705198764801  0,1980834470309117  -0,5290822326811417  -1,34209669627019  -0,26207763671875  0,012060773915052423  0,10982155487449821  -0,1907899887100874  -1,6346012613676968  35,98125  1298,3812890624995  36,0330582807302  0,1734390008531119  -1,1637181381650725  11,88125  144,1353515625  12,005638323825185  0,26605760618676794  -1,4074054495546762  35,848125  578,1381449218749  24,044503424314566  -0,8230882225721121  0,3318022699086094
59  0,75383056640625  0,004071333044767378  0,06380699839960643  -0,15791248267747504  -0,8513977175596228  -0,516904296875  0,0794452883243561  0,2818604057407782  0,3221645613442306  -0,7287295802561053  -0,24804443359375  0,0005895835101604464  0,024281340781769988  -0,46602146649213005  0,254026042504341  -55,41125  203,93009218750004  14,280409384450435  0,937928314104096  -0,4542078724796923  -1,913125  14,957257421875005  3,8674613665652826  0,40925213551863804  -0,8274034161947981  -122,404375  2847,705894921875  53,36390067191373  -0,2963287504125964  -1,2974480785460902
60  0,71756103515625  0,0019578703105449674  0,04424782831444914  -0,7139924174174865  0,018477583693024435  0,34059326171875  0,014352342194318775  0,11980126123843093  0,3339884655678241  -0,8069480026285465  -0,19083984375  0,0016440664291381836  0,04054708903408707  -0,631332442192539  -0,27444397388929653  -70,995625  408,819785546875  20,219292409648638  0,757872296443275  -0,39713796918779876  -1,29125  46,779470312499996  6,83955190875104  0,2958415893278078  -1,2680006319913124  -146,4675  645,8393343749999  25,413369205498903  -0,7393398909398585  -0,8481555235231077
61  0,31226318359375  0,022224228924512875  0,1490779290321437  0,5367790432965266  -1,113879119387258  1,299345703125  0,14579872403144833  0,38183599101112553  -0,5480690796918364  -1,2768236370743595  -0,1108642578125  0,001814535260200499  0,042597362127255005  -0,15039632925993102  -1,0876903830012004  -13,6  218,23703124999977  14,772847770487576  -0,004866479160087887  -1,2440228925530872  -2,76625  673,3112984375001  25,94824268495846  -0,28886693944543385  -1,6067704114889214  -115,3875  15331,301953125  123,81963476413989  0,4188550673636269  -1,461921466856552
62  0,41725341796875  0,028115619724988935  0,1676771294034727  -0,023907961843351193  -1,2623808865776942  0,89697998046875  0,09828442270159723  0,31350346521465633  0,32351683613548476  -1,1509359347824373  -0,1719482421875  0,0018879598379135131  0,04345065980987531  0,7280600060957042  -0,6228584541308715  21,566875  100,453535546875  10,022651123673567  -0,28584523596496036  -0,983121524077065  -11,35625  96,38582031249996  9,817628039017366  -0,432268119701901  -0,9384190171422198  165,26625  677,7940328125004  26,03447777107312  -1,3609617807913053  0,4442703071049974
63  0,692646484375  0,0007036229133605959  0,026525891377305228  -0,34335082776974934  -1,04867757223791  0,00921142578125  0,07707209689021116  0,27761861769379076  0,16386569691330613  -1,4035743606035025  -0,23325439453125  0,0033468962848186507  0,05785236628538759  0,10205350623369822  -0,8629316871344854  88,819375  1063,484132421875  32,611104434254834  -0,12660575425758372  -1,467369494221974  -18,29125  195,58025156250005  13,985000949678197  0,8292731196130634  -0,7161024246194803  162,666875  1457,1661761718753  38,17284605805382  -0,290938148395229  -1,4941430870757109
64  0,81884765625  0,006290619373321533  0,07931342492492385  0,06987408752337752  -1,3631799412603942  -0,76582763671875  0,032599493330717086  0,1805532977564162  0,14623140195132459  -0,6404778647317104  -0,2110009765625  0,0030842728853225708  0,055536230384520796  0,24719399658366792  -1,4923436760117832  60,6825  1210,1503656250006  34,78721554860349  -0,8684831211411457  -0,1736435349377392  10,884375  21,488857421874997  4,635607556930914  -0,5878997295364629  0,21158131393144952  59,283125  717,0852699218744  26,778447862448534  0,20946279996701533  -1,7236368272196978
65  0,746044921875  0,011307343244552615  0,10633599223476788  -0,05183051548346106  -1,4397716910220753  -0,722763671875  0,12270293989181519  0,350289794158801  0,5661401675376362  -1,1165610325218374  -0,1890380859375  0,0017226892709732054  0,041505292083940395  -0,05168156330021961  -1,2280688040018732  -54,695625  365,2237230468751  19,110827377350127  -0,5267275302829562  -0,9441697453625175  -2,21125  34,228107812500006  5,850479280580353  0,3883790484428144  -1,340072680254756  -110,383125  6535,606926171877  80,84310067143564  -0,059846526932042496  -1,5514753289088261
66  0,6898876953125  0,0021711261034011845  0,04659534422451651  -0,6614597430483427  -0,7876768441604685  0,31557861328125  0,0379470549762249  0,19480003843999852  0,19267623865049385  -1,1331383822363563  -0,150751953125  0,0012100189685821541  0,034785326914981755  -0,9776142894492909  -0,1027706273189053  -63,88  295,30411562500007  17,184414904936393  1,6604547907693499  1,5040079892124893  3,07875  31,88950156250002  5,64707902924158  -0,3936780656864072  -1,2483847102090222  -171,82875  299,8498921875  17,31617429421118  -1,1730315127823139  0,22403324628227228
67  0,35939208984375  0,012555821245908734  0,11205276099190388  0,3988377992538559  -1,248860492420516  1,210517578125  0,10184859523773197  0,319137267077557  0,0021619792060402223  -1,465591325519607  -0,14121337890625  0,0010371960341930388  0,03220552800674193  -0,08512951013751595  -1,1428347466666784  -1,355625  467,6091167968749  21,62427147436128  0,23483711559372594  -0,9581560202763173  8,873125  403,6944105468751  20,092147982405343  -0,4486791762207602  -1,4257735913031462  -131,6225  9273,264446875002  96,29779045686875  0,6760708948742689  -1,1374269104911998
68  0,43405029296875  0,017329191750288016  0,13164038799049482  -0,06258987438330951  -1,3953520939485697  0,976435546875  0,1257576292514801  0,35462322153446196  0,07972670749981846  -1,207889991019946  -0,131845703125  0,0008953773021697998  0,02992285584916319  -0,28767291092954206  -0,8370307039021503  1,5425  294,590459375  17,16363770810256  1,2178154215869212  0,23038620113988584  -35,158125  42,77081679687502  6,539940121811133  0,20779420259058468  -0,48822681095334985  190,6025  2543,900587499999  50,43709535153664  -1,142781852663888  0,0699904588409157
69  0,6616748046875  0,00029017517566680916  0,017034528924123764  0,009035117526457657  -0,4081915308185944  0,04321044921875  0,04970711290240287  0,22295092038922573  0,030275905390188068  -1,2639988906369615  -0,20098876953125  0,001004134863615036  0,0316880870930234  -0,7069875087550946  0,22474593737055226  110,58125  458,86410156249906  21,421113452911335  -1,6041936414050877  1,7458319574408314  -5,9725  134,54315000000005  11,599273684157989  -0,5036228477140183  -0,5750995453523791  148,33  750,3576624999998  27,392657090906678  0,14609387072516786  -0,12625110142485862
70  0,71770263671875  0,005196090096235273  0,07208391010645353  1,0004959873375778  -0,3713892006675148  -0,9386376953125  0,13257818129062648  0,3641128688890664  0,4338573713379096  -1,1933504182186818  -0,11249755859375  0,006288245075941087  0,07929845569707576  1,0613061112069495  0,034122228223324225  71,543125  1963,3832574218745  44,31008076523755  -0,20510440634278612  -0,849840492018866  16,075  78,80296874999996  8,877103623930497  0,3489707879697105  -1,283087605762428  79,730625  1428,991460546875  37,80200339329749  -0,3390849295755555  -0,822963308589646
71  0,77493408203125  0,00379289109110832  0,06158645217179116  0,5029698894966448  -1,2532159652033352  -0,81507080078125  0,08895630652308462  0,2982554383797295  -0,2825092449520331  -1,2035386677723907  -0,00620849609375  0,0026175549685955053  0,05116204617287609  -0,376997536075071  -0,6903938704019383  -81,40375  612,1069078125001  24,74079440544503  0,9370882220919922  -0,4759328117278625  -6,660625  113,92580117187498  10,67360300797603  0,3689958766710311  -0,9106535432436713  -99,335  1903,6108999999994  43,63038963841601  0,4146526870019021  -0,6638979156803355
72  0,602001953125  0,008607704639434815  0,09277771628702021  -0,7426015972010304  -0,9020575597872971  0,1715625  0,10473498830795291  0,3236278546540037  -0,04780070210237279  -1,1660472489720342  -0,15444580078125  0,004930511587858199  0,07021760169543104  -0,5962566258870517  -0,9054351409223615  -72,711875  561,8786636718752  23,703979912071205  -0,020934828281010384  -1,5495003352198136  -19,298125  35,84381679687501  5,986970585937016  -0,030825352943049375  -1,158602209298808  -218,586875  867,9667105468751  29,461274761063464  0,5099081798902285  -1,393373999361644
73  0,25177490234375  0,0047000644862651795  0,06855701631682333  0,6309001354935955  -1,0061652764171782  1,28015869140625  0,052236931866407425  0,22855400207917478  -0,6582084885257871  -0,9714983128105605  -0,25626708984375  0,0008734429538249964  0,029554068312585943  0,9167424340207494  -0,47721835302064886  -24,20625  490,7107421874996  22,15199183341082  0,34073881943882184  -0,673110429840678  -5,25375  170,67303281250008  13,064188945835868  0,132564903185309  -1,185801817749879  -100,116875  13352,304426171884  115,55217187994297  0,034744552170203016  -1,6222249062518115
74  0,41673583984375  0,019692492932081217  0,1403299431058148  0,22179808166078324  -1,4021197543353763  0,93157470703125  0,16252927882075305  0,40314920168686064  -0,3665909547015211  -1,2773105164015202  -0,13446044921875  0,0014553420245647431  0,03814894526149764  -0,02622041061896481  -1,510022516597598  8,46875  2012,3377734375  44,85908796930116  0,7689864241397412  -0,9166327809753358  -13,799375  182,36166367187502  13,504135058265488  0,33946490777978017  -1,1638525121561176  209,57  3359,3987718750022  57,96032066746182  -0,9130462952319144  -0,3410197943320106
75  0,6716455078125  0,000645932936668396  0,02541521073429052  0,06555318464500154  -0,7640350969751273  -0,232548828125  0,10629977879524233  0,32603646850504675  -0,7345199756151174  -0,618060939254061  -0,06492431640625  0,0001307311713695526  0,011433773277862063  0,2028503161011337  -0,6810381421639193  117,363125  39,183023046875  6,259634417989201  -0,38148721998036467  -1,0118046845546589  12,91  8,629478125  2,9375973388127923  -0,8307990193222153  0,5204411731412311  176,43625  310,0624203125  17,608589390195345  0,8664242655299967  -0,7234975690792518
76  0,75406982421875  0,0030365396201610557  0,055104805780993873  -0,17382705430126433  -1,4259240278410135  -1,13971435546875  0,01101750118136406  0,1049642852658182  0,7245148629466439  -0,06474274609653952  0,01338623046875  0,004525880879163743  0,06727466744000853  0,3349786439506641  -1,160503150699959  31,4725  3213,671821875001  56,68925667068674  0,03186524086240923  -1,6261588207400515  6,106875  63,642132421875  7,97760192174785  -0,8608273391678363  -0,3250099833191751  20,008125  3694,6409886718757  60,78355853906446  0,14302707156050926  -0,41379884231088315
77  0,7489599609375  0,000279581093788147  0,016720678628218025  -0,18823957094309676  -1,1546010255026973  -0,55444580078125  0,03940056383013726  0,19849575267530853  0,39409288090852457  -0,8968040095887053  -0,03491943359375  0,0014476364314556127  0,0380478176963622  0,1615726602134468  -1,546579361861606  -84,305625  101,51405429687499  10,075418318703942  0,762552126653554  0,5969984927872738  -9,88375  8,594376562499999  2,9316167148008963  -0,1969702014015081  -1,597427178649689  -123,759375  1185,1462792968753  34,42595357135188  -0,42610217081042673  -1,1346195161075856
78  0,6313134765625  0,0011363995313644413  0,033710525527859116  0,9011728481288406  0,39146571505071615  0,3965478515625  0,10389066293239592  0,3223207454266571  -0,043560065653545456  -1,3026672123452974  -0,13209228515625  0,0015423505008220686  0,03927277047550973  -0,49123880421351596  -0,558455866415779  -66,005  194,000990625  13,928423838503766  0,9289977777345486  -0,6238886766467271  -4,561875  73,86863242187499  8,594686289904653  -0,22545855448184773  -1,3515495746169184  -190,7225  164,16807187499995  12,812808898715376  1,028803691895508  -0,022393742737591982
79  0,4947021484375  0,0012595313787460325  0,03548987713061335  0,6822922777733658  -0,8833170475353849  1,2827001953125  0,02886711575984955  0,16990325411789367  -0,34434733107796206  -0,9843257153318179  -0,04553955078125  0,0013823717296123509  0,037180259945465026  -0,19399972909003887  -1,4440165804873697  -19,088125  167,29594492187493  12,934293367705672  0,04711050077339256  -1,3429102496730827  -4,878125  137,47627929687502  11,725027901752517  -0,054355099724202015  -1,5798172571421174  -16,346875  9186,030810546872  95,84378336932903  0,18175475921847603  -1,3603902685804925
80  0,6463037109375  0,0031838340997695906  0,056425473855073564  -0,7052477318114044  -0,5286708727963805  0,4864501953125  0,11206752717494965  0,3347648834255912  0,35892348060621015  -1,2288814043104141  -0,0855810546875  0,0006610553503036499  0,02571099668047993  0,2146565713296379  -1,035416672359649  59,976875  909,7055199218756  30,161324903290897  -0,36629034197005916  -1,1750022849517134  -4,44  62,859290624999964  7,928385120880542  -0,008352498368586403  -1,6904287616356135  171,39625  385,32204843750003  19,629621708975954  -1,2107761941422754  0,16948811797255559
81  0,73003662109375  0,0004877231776714324  0,02208445556656157  0,6216251106123478  0,2697443783333644  -0,39950439453125  0,09887614924311632  0,31444578108652743  -0,05528497420794825  -1,5575559668855752  -0,081328125  0,0007703522205352782  0,027755219698919302  -0,02009246398970556  -1,020107240012297  88,595  182,46722499999998  13,50804297446525  -0,7738508397363016  -0,7041315540916591  9,10625  33,7541796875  5,80983473839833  1,0704553745742456  1,089205344505947  128,60125  1026,0875609375  32,0326015324622  -0,15016143319714942  -0,7614496398719517
82  0,8637744140625  0,002719999527931213  0,052153614715868095  0,05968829338991111  -1,4796806137721952  -1,02348388671875  0,023280959957838066  0,15258099474652165  -0,046029972155664366  -1,5467191710444137  0,0819287109375  0,0014950778245925898  0,038666236235152106  -0,864021548230372  1,4044963035882327  -2,37375  1850,8845296874997  43,02190755519215  0,06924666415594458  -1,3980599527756303  5,151875  211,0243167968751  14,526676040886818  0,21713146667297048  -1,3921820111934589  3,76625  2852,1295796875  53,40533287685323  -0,4535461467458081  -1,513639863132549
83  0,71337890625  0,0013951849937438965  0,03735217522104833  -0,03906138001094516  -1,1269624998474994  -0,44364013671875  0,045833086222410196  0,21408663251686266  -0,20078119701141173  -1,177577690479002  -0,05625  0,00592764973640442  0,07699123155531687  -0,5320950251185043  -1,221288627771155  -91,2725  174,880353125  13,224233555295369  0,06182517260070468  -0,8868893967777027  -11,839375  57,52720742187501  7,58466923615493  2,1782134287095367  4,291520181939589  -127,994375  814,8800855468747  28,54610455993733  0,3743559497976901  -0,8347810308496708
84  0,589482421875  0,0014501803874969492  0,03808123405953317  0,8158533175194329  -0,7308667485154885  0,83940673828125  0,23930596386790273  0,4891890880507278  -0,22902842730133707  -1,3493049399383938  0,027216796875  0,005959214544296262  0,07719594901480428  -0,17820637428421102  -1,5396723401841035  -52,42625  159,9560453125  12,647373059750393  0,2277666752977474  0,07916127355175329  6,821875  216,43393554687503  14,711693836770634  -0,6389350115892608  -1,1761341623565627  -177,600625  5546,507804296876  74,47488035772113  0,6440894139448341  -0,9817729466446417
85  0,50758544921875  0,0030875197112560267  0,05556545429721624  0,46847420991745614  -0,8922070883872433  1,11378662109375  0,0818256858050823  0,2860518935526949  -0,31106429891201665  -1,0386812538720038  -0,05767822265625  0,003705112189054489  0,06086963273303437  0,8699755636836143  0,09416513893451439  17,025  788,9434375000004  28,0881369531694  0,1049213980915176  -1,072341380901446  -10,565625  205,16620117187497  14,323623884055143  0,4954273521676411  -1,3889183420407725  106,48875  4172,5404203125  64,59520431357501  -0,37029968473279556  -1,0480845134921406
86  0,77385498046875  0,001777305954694749  0,04215810663081003  -1,2886822165571434  0,9504432033358432  -0,0180712890625  0,04661421177387238  0,2159032463254603  0,599060012936399  -0,33263242276795957  0,0459521484375  0,0007062084436416625  0,026574582661664934  -0,09634990126631654  -0,7765209391398784  92,876875  392,91870742187496  19,822177161499564  -0,2675212102674385  -1,5597856112113668  -1,659375  40,53002929687495  6,366319917886231  0,5619628400090029  -0,11266740658011232  161,745  1394,154740625  37,33838160157722  0,23334830715942542  -1,3819953892421157
87  0,7513525390625  0,0015973978281021118  0,03996745961531846  0,7582730661374338  -0,5273705315344577  -0,7930517578125  0,04094534065723419  0,20234955067218258  -0,43341288337732753  -0,7218559687169317  -0,01107666015625  0,001962049788236618  0,04429503119128169  0,30423465113744963  -1,1927000405631878  65,321875  755,764326171875  27,491168148550454  -0,4470124656137108  -0,8944067425230924  -3,6525  95,75940000000011  9,785673201165064  0,015293230499836148  -1,5886142326721264  89,850625  1229,4568667968758  35,06361171922932  1,090496440880661  -0,3072852619326367
88  0,80741455078125  0,0014010751903057094  0,03743093894501859  0,38739079870388343  -1,1609508822434216  -0,99713623046875  0,042738406485319146  0,20673269331510957  0,5134428312228053  -1,1227631279792534  0,09006591796875  0,00028429638743400585  0,016861090932499174  0,3056879648244001  -0,5160185338800067  -51,36625  999,5765640625004  31,616080782767817  0,6687931258469263  -1,1239731472263843  -12,849375  84,17891367187504  9,174906739137736  0,2822590924972214  -0,9651222306414273  -74,044375  3571,524944921872  59,76223677977483  0,08500714698295687  -1,1890584783949738
89  0,68884521484375  0,0018387335479259487  0,04288045647991575  -0,24258668140329478  -1,429381714777344  0,0162548828125  0,08229199788570404  0,28686581860811516  -0,4631631037471992  -1,0267732191992007  -0,0486083984375  0,007737055420875539  0,08796053331395585  -0,374279637963332  -1,3660789302554717  -79,305  126,05439687500002  11,22739492825473  -0,48668441149556535  -0,6619896948580806  -38,045625  73,38616054687498  8,566572275237919  -0,1037329574794421  -1,4995793286280732  -177,50375  514,7767828125001  22,688692840542842  1,0926542776544208  0,1955195759659838
90  0,5670068359375  0,0004597144365310671  0,021440952323324332  0,6187465234763042  -0,46692295122243976  0,8678515625  0,09145677218437197  0,30241820742867315  0,35728342349064124  -1,127871556949938  -0,18068359375  0,004938246822357175  0,07027266056125366  1,337541793192164  0,9833771426949074  -81,40875  678,2957359375001  26,04411134858512  0,761816213020559  -0,9843077776693283  -27,64125  665,9584859375002  25,806171469970128  0,5192456768240823  -1,4971411665995995  -89,12125  320,9248296875001  17,914374945487218  -0,3259204583148825  -0,8660877989498723
91  0,57072998046875  0,0011544433772563934  0,03397710077767662  0,027474682598037554  -1,2703066039444155  1,09506591796875  0,12470584141612052  0,3531371425043258  -0,05327836535803453  -1,481770252013654  -0,08886962890625  0,004805275791883469  0,0693200965945913  0,5395869979968071  -1,4352321437317799  45,773125  1100,088488671875  33,167581893648425  -0,47845560829408795  -0,7747778672341652  1,058125  61,912051171875  7,868421135899819  0,1909574052410234  -1,416993997674547  82,51125  3423,947060937501  58,51450299658625  -0,8804413583556573  -0,6209684873812118
92  0,6861328125  0,001199706792831421  0,03463678381188734  -0,3695420026985043  -0,5282736023216397  0,06279296875  0,06563527345657351  0,25619382009832614  0,011976695779511463  -0,8689576963422057  -0,142685546875  0,0004643599033355711  0,021549011655655374  0,5698351763832608  -0,5008697541047891  103,925625  109,25396054687496  10,452461937116775  0,4503477379861968  -0,4535232011660528  17,329375  6,466238671874995  2,542879995570966  -0,5543779326970051  -1,1796735960496159  148,521875  273,85518554687525  16,548570498592174  -0,3627712901239022  -0,9749887118355574
93  0,72347412109375  0,0037942843139171594  0,06159776224764305  0,8880953914916896  -0,7456389954951845  -0,6163671875  0,06684048476219175  0,25853526792720516  -1,0027158742544797  -0,1513062673215062  0,00751708984375  0,020012644881010053  0,14146605557875025  0,29721890781171506  -1,385225562938574  98,1375  482,884453125  21,974632036168433  -0,3585515172130504  -0,30359813208889896  36,694375  93,63569492187497  9,676553876348489  -0,7238808047723476  -0,46349285721179845  97,01875  362,19582031250013  19,031442938266665  0,19831280750454663  -0,40569186178597905
94  0,800400390625  0,003397361421585084  0,05828688893383386  -0,15002299095616814  -1,332385544786604  -1,2203564453125  0,07938054940700531  0,28174554017234293  0,5062619325139911  -1,1205149424752963  0,24527587890625  0,0018031077086925512  0,042463015774819285  0,5084160844619829  -0,5484737849197638  -51,44125  2874,029907812498  53,60997955430032  0,2592944753767966  -1,4060171332023006  -5,795  286,4048500000002  16,923499933524393  0,7406131462249126  -0,4989468300243787  -47,57  4900,058303125003  70,00041644965408  0,6432916187765311  -0,7806070748428646
95  0,61968505859375  0,0052327285468578314  0,0723376011964582  -0,0394730714039553  -1,670002977568122  -0,15263916015625  0,12296749984622007  0,35066722094632696  0,3190172381363784  -1,1491725000390023  0,0035546875  0,012874083900451663  0,11346402029036193  -0,014551484471041744  -1,6876697418451423  -117,540625  84,47112304687496  9,190817322027186  0,4010494515303641  -1,1879651527186479  -30,015  59,59930625  7,7200586947250605  0,9062016554423395  -0,05719616934473004  -179,225625  524,5757730468749  22,903619212842212  0,5082795376930429  -1,1467834652880162
96  0,5877197265625  0,00016497433185577392  0,01284423340864584  -0,3913143528857906  -0,4597940108952918  1,0330126953125  0,09938832948207857  0,3152591465478497  -0,2562937770104165  -1,3282569329769174  -0,06395751953125  0,0020738893210887894  0,04553997497900926  0,24519942332919117  -1,5634281930521567  -57,92625  1087,2631546874995  32,973673660778225  -0,10070884372485644  -1,2725208075761039  -2,2475  72,86764999999998  8,53625503367841  -0,44246424522699085  -1,454764457983687  -108,019375  2860,5699761718743  53,48429653806689  0,6617983562267219  -0,6774943667661923
97  0,602392578125  0,003077878952026367  0,05547863509520009  0,7135178522595315  -1,1254397023250706  0,90962890625  0,07489394392967225  0,27366757924473306  -0,19074954208519587  -1,123676712763427  -0,074541015625  0,002206340885162354  0,04697170302599592  -0,03718513800999336  -1,5872512444050955  55,458125  654,8843011718752  25,59070732066379  -0,45001162175814974  -1,1948992463300259  8,6225  116,89679062500005  10,811881918750318  -0,36274033910231707  -1,5003726383155045  96,148125  1834,906457421875  42,83580812149895  -0,18478718231093452  -1,0039291956271605
98  0,7417431640625  0,001486620163917542  0,03855671360369737  0,18319401257884174  -1,4126604655592119  -0,09119873046875  0,07173773214221005  0,2678390041465396  0,2957393234158613  -1,0424031738216457  -0,04331787109375  0,0005190673530101777  0,022783049686338697  -0,9138353669617546  -0,15347046653369745  112,52875  329,65440781250004  18,156387520993817  -0,33869870100986177  -1,3673149234434276  10,729375  12,963285546875  3,600456297037224  -0,39668220467000787  -0,590892078983571  149,7375  197,72976562499997  14,061641640470006  -0,6916647519981024  -0,46445903083353723
99  0,81233642578125  0,0023149252593517296  0,04811367019207462  0,37497158501400707  -1,5840348454052078  -0,9168798828125  0,14833169391155246  0,3851385385955974  -0,2287715005415259  -1,6146963453868945  0,04567626953125  0,004037337416410446  0,06354004576965967  -0,1195144383523034  -1,6767203889653677  54,4625  2431,5121874999995  49,31036592340397  -0,0941862088798186  -1,3740344298265834  15,109375  41,091904296875  6,410296740157588  0,046906143387828315  -0,9441340078131004  75,27125  1246,1868140625  35,30137127736683  -1,0741898987294958  0,4255288248694833
100  0,77843505859375  0,0026318650901317603  0,05130170650311508  -0,18154121605430665  -0,8208738785911542  -0,80396484375  0,12774932494163516  0,35742037566657436  -0,18813887233628349  -1,124441738928833  0,1081005859375  0,0009667308092117308  0,031092295013583845  -1,7416026275921186  1,7903741518253211  -83,781875  719,4573824218746  26,822702742674434  1,1943267437196206  0,0498005347782815  -13,784375  94,16635742187485  9,703935151363845  -0,16625478452469228  -0,9738827510828432  -119,0975  1873,3654937499998  43,28239242174582  0,28470491123933633  -0,935702192251747
101  0,6393896484375  0,00277350046634674  0,05266403389740231  0,20380941559061844  -1,5890391670402007  0,3022119140625  0,09150580050945284  0,30249925703950553  0,22053736337077495  -1,0546749083175828  -0,07108154296875  0,006314682215452197  0,07946497477160738  -0,39450353327916843  -1,2987732869324207  -108,820625  125,12184804687499  11,18578777050928  1,557468790730194  3,48196973957465  -19,924375  255,15939804687505  15,973709589412067  0,9601757251065847  -0,7203616888009754  -158,528125  106,631982421875  10,326276309583964  -1,1770116471017444  0,005146758509396943
102  0,52364501953125  0,0007861082255840304  0,028037621610686424  0,8122941420269498  -0,3908648711803093  1,247646484375  0,023580430173873915  0,1535592073887916  -0,828110472914203  -0,5291110305366562  -0,05688232421875  0,0007332974612712862  0,02707946567551299  0,6230007240406265  -1,0899242309974826  -10,403125  543,2038574218753  23,306734164654543  -0,1424007025436867  -0,9601597741879  8,45875  8,1527515625  2,855302359208215  -1,230338377498266  0,924062253723847  -54,3425  7067,006287500003  84,06548808815663  0,16483572682751674  -1,357597285652115
103  0,696982421875  0,005925659799575803  0,0769783073311943  -0,5816386113231834  -1,2237659089775517  0,58986572265625  0,09495006214976309  0,3081396796093666  0,3435915229263393  -1,3027501414039515  -0,03696044921875  0,0015369092166423797  0,03920343373535512  -0,5084375825887256  -0,4428409543158782  65,384375  516,2847167968753  22,721899497992577  0,44236285390606483  -0,5062061709640058  -2,36  29,628837499999985  5,443237777279253  -0,7696073390789108  -0,819299309449026  142,3375  533,2368750000006  23,091922288973706  -0,1672866835516478  -1,0527059468806237
104  0,7590625  0,0005409303665161132  0,023257909762403696  -0,44673378705168815  -1,4967546816283288  -0,12570068359375  0,038635069912672036  0,1965580573588171  -0,9211569451056625  0,011244349184177604  -0,0762353515625  0,000821586394309997  0,028663328388552452  0,057585825602615194  -0,9135762292349123  107,63875  160,62293593749996  12,673710425029443  0,029950248818095295  -1,137353962431497  1,006875  13,551632421875006  3,6812541914237604  -0,7293956133944007  -0,6869627991596157  121,138125  328,36885117187506  18,120950614464878  0,12350923992519554  -0,08653918688336137
105  0,7779931640625  0,0031727447748184203  0,05632712290556318  -0,1098079934405532  -0,5156460089371753  -1,20451171875  0,12109312281608575  0,34798437151125877  0,08958659327439024  -1,3559765267205883  0,029267578125  0,0026635781288146965  0,05160986464635125  0,5473816899867354  -0,9587225969414241  29,150625  3459,4309449218736  58,81692736722884  -0,018874794312099007  -1,7278659487797479  -6,79125  53,78806406250001  7,334034637394346  -0,12200558693251173  -1,302690271667732  57,0275  7471,117681249997  86,43562738390922  -0,8753330065140393  -0,6775641291827155
106  0,61753662109375  0,0002782955825328827  0,01668219357677169  0,8130528036143696  1,5741257527136812  -0,50620849609375  0,09564857513308529  0,30927103830311253  0,18228986892435153  -1,029270830578637  -0,0829736328125  0,00048446300029754647  0,022010520218694207  0,35819211748744756  -1,4000648481307014  -114,585  358,8278531249998  18,942751994496465  1,6951725219412832  2,440597040531137  -4,644375  73,60583554687497  8,579384333789632  -0,3690428134898648  -1,0817955069643843  -144,868125  1082,005148046875  32,89384665932027  0,05427000044262005  -1,71776406343411
107  0,62406005859375  0,001134691685438156  0,03368518495478622  -0,03513388118173279  -1,308877095547463  0,65938720703125  0,12692984864115714  0,3562721552986665  0,11834317898397659  -1,151944000590002  -0,02586669921875  0,0009503845870494839  0,030828308209330656  0,19719760320155197  -0,9492941937572894  -96,5025  884,3690562499993  29,738343199479008  0,19420429273514367  -1,6074560861423648  6,935625  25,223863671874987  5,022336475374284  -0,5280403377315209  -1,0065818301402065  -168,546875  405,784013671875  20,144081355869147  1,8924471015118085  2,5866169772227074
108  0,5407861328125  0,0004140362977981569  0,020347881899553007  0,36917066851117253  -0,968016706981182  1,262978515625  0,02446165647506715  0,15640222656684638  -1,0936920259936993  -0,026219876134943476  -0,0194287109375  0,0012618746519088753  0,03552287505128034  -0,6612919197161857  -0,8987761235740144  2,904375  1054,6195667968752  32,47490672499115  -0,1001042548407054  -1,470290265412718  1,76  36,10911874999999  6,009086349021787  1,0686783127754482  0,3099330002395271  37,33875  5105,6903265625  71,45411343346511  -0,1333760802441103  -1,1033022439126132
109  0,74634521484375  0,006505514925718303  0,08065677234875136  -0,49606196211886416  -0,9012011867608769  0,26443359375  0,07787595543861388  0,2790626371240225  0,6784860586269713  -0,7729607315370188  0,02196533203125  0,0005950337111949921  0,024393312837640405  -0,2974463592520943  -1,0293226705760206  83,885  232,23115000000016  15,239132193140138  -0,16210856475205745  -1,0719677479077288  13,290625  13,471748046874989  3,67038799677568  -0,62824792884084  -0,755159403424865  155,33375  452,61634531249996  21,27478190986925  -0,0667986979277696  -1,2490488716675852
110  0,76953125  0,0011583566665649414  0,034034639216024336  0,4191850165886257  -1,301810691790388  -0,49668212890625  0,09713313590884208  0,3116618935783489  -0,4739711220147699  -1,1791607640382429  0,03296875  0,0008559583663940429  0,029256766164325865  1,42794384622338  1,1890898562315586  97,841875  1262,035269921875  35,525135748113264  -0,6338819388359466  -0,5232579147095433  3,23375  25,0426265625  5,004260840773591  0,15622193617291127  -1,3306495641837957  127,8575  423,1491468750001  20,570589366252978  0,3439647349871923  -0,955386129345301
111  0,7872802734375  0,0011718565225601193  0,034232389962725644  -0,1995345517163113  -1,603715526514433  -1,07867431640625  0,027796625345945358  0,1667231997831896  1,0339324124944917  -0,07077498413941852  0,11048828125  0,0008418647289276121  0,02901490528896505  -0,1467371590649043  -1,3538729310225923  -22,834375  2665,762294921874  51,63102066511831  0,40206157593498565  -1,379858812459023  -7,405  69,552225  8,339797659415964  0,5269227032925808  -1,3422067214555595  -22,975  4250,888828124999  65,19884069617342  -0,14512042029577057  -1,306520415039606
112  0,7370849609375  0,00029976427555084234  0,017313701959743976  -0,1137713446120549  -1,1735712775176022  -0,25902099609375  0,03420066997408867  0,18493423148267782  -0,7091046935348876  -0,7288567883378119  -0,03990478515625  0,009409971684217451  0,09700500855222606  0,2728219826552756  -1,649113661651109  -102,904375  243,34667617187503  15,599572948381473  0,08129517785765471  -1,1915940551037913  -23,499375  49,864648046875  7,061490497541931  0,275427200912904  -1,3203768110869936  -129,360625  261,36701992187517  16,166849412358463  -0,28778823742161086  -1,313094641628492
113  0,64388671875  0,00329499545097351  0,05740205093002784  -0,304207294430738  -1,3363261972567595  0,71103271484375  0,22377071725726122  0,47304409652511387  0,19032158016897413  -1,2600957006216607  -0,0296435546875  0,003957540011405943  0,06290898196129026  -0,1360712140344757  -1,4256066645327568  -71,455  527,38063125  22,964769348939694  -0,116419989871854  -0,8918109384504564  0,103125  101,572451171875  10,078315889665049  -0,14507563884186106  -1,3634944309997283  -166,064375  2011,8119105468745  44,85322631145807  0,8141476837548284  -0,35483766670980765
114  0,48774658203125  0,004916081064939498  0,07011477066167655  0,5529311033602543  -0,6684321815043255  1,137890625  0,09859667181968688  0,3140010697747492  -0,28956084057712905  -1,1752513710395478  -0,1134619140625  0,007594211840629571  0,0871447751768835  0,6369401443071397  -0,7714649078152145  34,078125  880,729638671875  29,677089457557575  -0,35032808111302716  -0,666923997794648  -1,25625  421,9818359375  20,54219647305273  0,41263756101004107  -1,4935887125286444  83,160625  4726,241504296872  68,74766544615804  -0,4451950450018304  -1,0736903226327696
115  0,76385986328125  0,0013662026584148397  0,03696217875632928  -1,0472898220886393  0,3293570799706895  0,06412109375  0,036294723176956166  0,19051174026016393  0,6324922014359922  -0,49530838367361163  0,0136474609375  0,0002539461851119994  0,015935689037879706  -0,8912239373975109  1,2992429342871148  105,211875  272,4325699218749  16,505531494680046  -0,18849505526183788  -1,2552938721237976  15,6625  23,767421874999986  4,8751842913883765  1,2365396504030957  0,36137367231066087  141,74625  892,6940484375  29,877986017091246  -0,17492182056804512  -1,2380663198295287
116  0,79947265625  0,0010606223583221432  0,03256719758164867  1,2288375472630222  0,20377168240610688  -0,76410888671875  0,039689687842130644  0,19922270915267326  0,5963968275871909  -1,0382791084678498  0,02998046875  0,0009019148349761959  0,03003189695933635  -0,014051411193966716  -1,2940938739462513  74,54875  792,0137953125002  28,14273965541557  -0,14198556554200956  -0,6339421141797419  4,56  10,661712500000007  3,2652277868473445  -0,0625768942064692  -0,8004090077864827  76,360625  3186,4329574218755  56,44849827428428  0,04148408522194818  -1,201298856214578
117  0,84388427734375  0,007703177183866499  0,08776774569206218  -0,3917671813990599  -1,3299133198654307  -0,9660546875  0,05399057378768921  0,23235871790765505  1,0843546199924181  -0,07868141069958945  0,12151611328125  0,0018630157172679898  0,04316266578037077  -0,297916738742492  -0,2622898072160802  -78,0  2119,404375  46,036989204334375  0,27201681726925137  -1,373666120671199  -8,3575  154,5564125  12,43207193109821  0,986562141813435  -0,7255600029443969  -52,85125  4022,927170312499  63,426549411997016  -0,338393229595209  -1,3506167598384369
118  0,59383056640625  0,0030028498828411103  0,054798265326934485  -0,7641353949993344  0,019228377190490864  0,159599609375  0,1082120431423187  0,32895598967387524  0,25207161198466654  -0,8419419709586982  0,0182275390625  0,0023677149057388307  0,04865917082872283  0,39940879819611674  -0,8981628198662084  -135,365625  292,598779296875  17,105518971866214  1,7529410275865054  2,195722322229842  -21,05125  121,5237796875  11,023782458280824  0,7372034777128875  -1,10786076920722  -182,221875  470,3030761718751  21,68647219286427  -0,9013016594553575  -0,6320073974059102
119  0,39953125  0,0008671587467193602  0,02944755926591133  -0,0741328384796048  -1,052432336989905  1,417255859375  0,045179015016555815  0,2125535579955222  -1,1825123522425032  0,46226163493409045  0,0007763671875  0,002910625195503233  0,05395021033789612  -0,26120205040940536  -0,4965628723445681  -25,64125  2126,594110937501  46,11500960574009  0,09754330925846542  -1,5753247918061724  -3,398125  22,42848867187498  4,735872535433675  0,35118792314046765  -0,8683142302600464  -65,269375  8750,387866796878  93,54350788161025  -0,07792308414490372  -1,1635148095806207
120  0,554052734375  0,010051167011260985  0,10025550863299725  0,09553513181305265  -1,1645987225551797  0,65855224609375  0,17281672269701961  0,41571230760830213  -0,14036329144323104  -1,4694887469384081  -0,02953857421875  0,0008209663569927219  0,028652510483249488  -1,0058936294442369  -0,13936765439467136  89,651875  288,0372855468752  16,97166124888413  -0,7098844943143857  -0,3094773476768955  6,245  18,18997500000001  4,264970691575736  -0,06476902966174174  -1,2678461492041246  157,311875  979,9892574218741  31,30478010499154  -0,5472215003938855  -0,9918483758775389
121  0,77366455078125  0,0011819854438304908  0,03438001518077749  -0,5520189398489499  -0,631969054927966  -0,44970947265625  0,1348328131377697  0,3671958784324379  -0,48778845611644556  -0,5984645152390304  -0,01658203125  0,0005728920459747315  0,023935163378902002  0,11307748093328267  -0,599781675165235  118,058125  685,4557230468752  26,1812093503504  -0,7299020775240673  -0,23966732573827843  -2,028125  136,51268554687493  11,683864324224025  -0,46098533941931036  -0,7776860241110479  144,516875  546,0523324218749  23,367762674716527  0,05311052074729663  -1,477695391342522
122  0,7461572265625  0,0008041126966476437  0,028356880940040703  -0,08276747492126844  -1,3257805327541337  -1,11503173828125  0,1830582988917828  0,4278531277106465  -0,029412452062150932  -1,5109533450098651  -0,15880859375  0,004915574169158932  0,0701111558110329  0,20146519902124554  -1,356790435455774  -41,095625  2011,8127699218742  44,85323589131418  -0,0010226131893856895  -1,1842354422621588  -0,5275  193,8616656249999  13,923421476957447  -0,8085561313925563  -0,7107280062532255  -41,378125  8806,870263671864  93,84492668051834  1,144974925635702  -0,25326311132628954
123  0,800771484375  0,0004717170238494873  0,021719047489461577  -0,48777550333767605  -0,7643372811350839  -0,129716796875  0,06342312202453612  0,25183947670001244  -0,049275838465894735  -1,3541411061702484  -0,02059814453125  0,0015341718852519973  0,03916850629334743  -0,6119903837549053  -1,1288562739772687  -120,170625  87,08834804687505  9,332113803789314  0,3295948256662559  -0,6502681055813153  -8,258125  122,77216054687501  11,080259949426955  -0,627910029349798  -1,0351554657298996  -125,48  143,389678125  11,974542919251657  0,34272900367624154  -0,9000444768728442
124  0,56793701171875  0,015391132658720011  0,12406100377926986  -0,20833912819425926  -1,5407003676887039  0,81557861328125  0,18864856826663018  0,43433692942994173  0,36033756401565775  -1,3920193971854875  -0,07421142578125  0,0017186587512493118  0,041456709363495214  -0,10512602109058788  -0,9950520333497463  -108,7725  1485,6602750000002  38,54426384042119  0,7993443171817505  -0,6553481870766684  -30,925  387,99062499999985  19,697477630397245  0,6698128193748094  -0,7788219495290312  -126,595  349,51097500000003  18,695212622487073  1,9617063895702103  2,9326247961090486
125  0,432392578125  0,005949703073501584  0,07713431839007578  1,1916446351772745  0,13745883772477008  1,223173828125  0,08417300257682803  0,29012583920917495  -0,2564013401343882  -1,30899418321822  -0,10078125  0,00281623125076294  0,05306817549871995  0,040398788672280174  -1,1284901320413743  50,745  1377,36794375  37,11290804760522  -0,5341095194050074  -1,0523896785864182  17,728125  166,20057617187504  12,89188024191487  0,458415021058945  -1,217191527154874  59,899375  3190,6398355468755  56,48574895977635  -0,43291692197565806  -0,9002393657087362
126  0,7704248046875  0,0030791654825210583  0,05549022871209902  -0,7606681444241309  -0,7163163321041517  0,15849609375  0,08083351254463203  0,28431235032026314  0,279792217877541  -1,3064763465779805  -0,01749267578125  0,002012384384870529  0,044859607497954423  -1,06270187249036  -0,3091571275840743  115,939375  79,89823867187502  8,938581468660171  -0,013517926121982752  -0,9767529963134094  12,471875  276,4151074218751  16,625736297135088  0,027391469763209955  -1,6628631047752929  148,203125  408,135654296875  20,202367541871794  -0,4238107001912321  -0,9207665991006388
127  0,74251953125  0,002799865627288818  0,052913756503283886  0,0007755362304889032  -1,423535052499103  -0,53460693359375  0,06206929728388786  0,24913710539357212  -0,47354858938108235  -1,0124454696937  -0,12010986328125  0,008151777333021163  0,09028719362689906  -0,31260509478141324  -1,2819401660006031  104,01625  296,7430953124999  17,226232766118653  -0,4571457642957442  -0,2828158252000801  5,628125  143,79643554687505  11,99151514809013  -0,11054782906849091  -1,5273232471807878  95,7575  475,40775624999986  21,80384728092728  0,28719529896357643  -1,2434104905516206
128  0,7762548828125  0,0016227798700332635  0,04028374200633878  0,4221306131806602  -1,6238372069145557  -1,16888916015625  0,14955847722887983  0,38672791110660715  0,06885362299955052  -1,396789292034056  -0,00401611328125  0,0021757261455059057  0,046644679712759374  0,3067182665586504  -1,4844609406414782  -53,2  2225,64625  47,17675539924296  0,43368538143886864  -0,4879892797007477  -0,095625  13,818707421875006  3,717352205787744  -0,46722129747349345  -0,5684522245070869  -54,311875  8879,580976171868  94,23152856752282  0,7712268162121622  -1,1678393407900929
129  0,66481201171875  0,0011021509826183325  0,033198659349713694  0,5549351564420887  -0,8608161324619901  0,02316650390625  0,13964521872401237  0,37369134151597944  0,14694067193669744  -1,3633048234058416  -0,04106201171875  0,001409704321622849  0,03754602937226317  -0,1928966611956555  -0,6822340307677068  -127,59375  21,7178515625  4,660241577697448  0,3569807868606835  -0,7203666679999317  -12,439375  17,374723046874998  4,168299778911661  0,2666577523261867  -1,1692336437335735  -155,573125  196,36180117187513  14,012915512907195  -0,13054918236238602  -1,4402425359539015
130  0,55503173828125  0,0066962958514690425  0,08183089790213134  -0,03734998732448666  -1,5536771123752846  1,15329833984375  0,05064458262324334  0,22504351273307865  -0,7791479138084257  -0,8274291318950109  -0,10556396484375  0,00498747574687004  0,07062206274862014  -0,10369924374126158  -0,8909062299831847  -37,091875  2090,387223046875  45,720752651797795  -0,374595417358709  -1,13621519178243  10,705  118,389615625  10,880699225003879  0,25769517093237426  -1,1729752001489888  -78,486875  3804,029866796875  61,6768179042732  0,7685640642824891  -0,7486063017131026
131  0,67626953125  0,007538682222366333  0,08682558506780322  -0,31111235817165145  -1,1869237263309844  0,6166015625  0,1699047482013703  0,41219503660448203  -0,08856105922553092  -1,3436061323869852  0,0068115234375  0,002400588393211365  0,048995799750706844  -1,1279502172731075  0,007019184826253078  87,706875  1068,511851171875  32,688099534415805  0,0015433100616670142  -0,9762714408492164  20,67875  26,829454687499997  5,1797156956246155  -0,018591640509591015  -1,168781537763987  142,399375  1166,7799136718747  34,158160279380894  -0,8637627066588778  -0,5123678516918595
132  0,81498779296875  0,0016419442832469947  0,04052091167837904  0,09115922916014851  -0,9490232934426026  -0,31421630859375  0,031049621647596348  0,17620902828060866  -0,627375188924936  -0,1043146820501284  0,0716748046875  0,0010344662427902221  0,03216311929509049  0,20307019541904422  -1,392122847420678  114,63875  736,9377796875001  27,146597939474848  -0,22874110001409811  -0,9202839894728934  12,898125  282,12676992187505  16,796629719139343  0,19266000579486875  -1,2757833739580535  121,37125  791,4001421874997  28,131835030575232  -0,33644745304111  -0,7008682771853789
133  0,70337646484375  0,00027157837748527516  0,016479635235200903  -0,10951996345434667  -0,7683384645880413  -1,213056640625  0,05596271023750303  0,2365643891998604  -0,015591891813885657  -1,3486726128460769  0,030869140625  0,002892005825042722  0,05377737279788519  -0,46975872909243016  -1,3610414267565352  -3,624375  3109,847694921873  55,76600841840729  -0,37213677542757595  -1,153883965593498  -5,458125  127,43781679687496  11,288835936307825  -0,40246684378929776  -1,5783976158536626  28,1475  10929,165743749998  104,54265035740197  0,36860716726393083  -1,6057372581592098
134  0,686826171875  0,000978379392623901  0,03127905677324527  -0,01619415228341957  -1,3861560446792334  -0,3960986328125  0,0806870236158371  0,28405461379079394  0,035963751549027145  -1,1867296843327424  0,043642578125  0,0022343982696533195  0,0472694221421557  0,40604504668640556  -1,1184407219715604  -129,518125  121,72791367187509  11,033037372903035  -0,0457983226996453  -1,2330128936555211  1,239375  30,074223046874987  5,483996995520237  -0,4353054947696118  -0,8856873298448913  -135,744375  446,642741796875  21,133923956446775  0,8225757636533328  -0,0024597992671036017
135  0,6937255859375  0,006148956418037414  0,07841528178893074  -0,7960069366472279  -0,9203728418988768  0,885986328125  0,1915046238899231  0,43761241286088204  -0,12084307505377341  -1,2855257455566298  0,0595751953125  0,0025595295190811167  0,05059179300124791  -0,5185114329016259  0,14663683989552734  -75,564375  1783,0371449218762  42,22602449819159  -0,33339697234317606  -1,3732487836973841  0,6025  217,93574375  14,762646908667836  -1,0273353519467407  -0,3506997729329684  -157,556875  3276,6994605468763  57,24246204127559  1,2939500408791853  0,29238475796715413
136  0,602451171875  0,008709951066970822  0,09332711860424504  0,41850288754935333  -1,086389922631549  0,89209228515625  0,10419678270220756  0,32279526437388695  0,03790435199031625  -1,0695535238854397  -0,09481689453125  0,0073412283122539545  0,08568096820329445  0,437872781474413  -0,9991237847582028  51,398125  784,2172386718751  28,00387899330868  -0,38084726561668586  -0,6935754241222782  12,14375  260,9627734375001  16,154342247132817  -1,2651537806187132  0,46432594793097604  97,7925  2177,3638968749997  46,66223201771428  -0,6219104868050406  -0,762900739415719
137  0,8551025390625  0,0013273686170578002  0,03643307037648351  0,5465382140553917  -0,8684487631742841  -0,06031982421875  0,028988199537992466  0,17025921278448478  0,12747811885981858  -0,8904479505022587  0,09573974609375  0,0006874303519725809  0,026218893034843805  0,09149831655871442  -1,570487662454799  101,525  86,98687499999997  9,326675452700172  0,47998767544831134  -1,199345597179153  4,03875  145,2641234375  12,05255671787111  -0,5226043840876218  -1,3880799707966287  129,45625  426,69628906249955  20,656628211363525  0,23342125127550684  -1,3627645230727932
138  0,74112060546875  0,0012193878352642058  0,0349197341808927  1,5072491638212924  1,1113946465858842  -0,8702880859375  0,16340804874897  0,4042376142183827  -0,3409817641267407  -1,5355852274540605  -0,00108642578125  0,0009305255115032194  0,030504516247651256  -0,5921942110532405  -0,259747516829536  64,26625  1489,3295796875  38,591833069802476  -0,38294276277167605  -1,5660847884274167  -14,0375  15,043750000000003  3,87862733450895  0,13912906401534986  -1,0789618529919573  100,52125  1348,0442359375008  36,715721917694886  -1,016531510187253  0,8087298261105627
139  0,71817138671875  0,00038129646182060237  0,019526813918829728  0,20931476670687024  -1,282815284302468  -0,87766357421875  0,09725813161730765  0,31186236005216733  -0,503680096688741  -1,1525733475999447  0,01502197265625  0,0022490614116191863  0,047424270280302536  0,13675090761064762  -1,1621893222957747  -83,36625  1317,4474234375002  36,29665857124455  0,8908497804526889  -0,46448857481185435  2,169375  28,641741796875  5,351797996643278  0,18658106774706026  -1,4925940438199592  -87,158125  772,7194886718754  27,797832445568044  1,2435097631597132  0,4645362286857768
140  0,64865966796875  0,003800894135236739  0,061651391997559465  0,36047001130501477  -1,3632158456407408  -0,07624755859375  0,16472486817240714  0,40586311506763845  0,39370229081400226  -1,2231334336553696  0,09009765625  0,012274979257583618  0,11079250542154744  0,744335606663576  -0,6647324110700055  -125,528125  187,85096679687493  13,705873441589738  1,4213057098412445  1,6657250975869644  12,36375  161,3440921875  12,702129435157714  0,6112732482297447  -1,1429570890515652  -188,404375  4145,519488671876  64,38570873005807  0,4379665704050262  -1,4374871308699464
141  0,353515625  0,0075855982303619385  0,08709533988889381  0,6929440410494149  -0,44537445646984697  1,50281494140625  0,10419804150462159  0,32279721421446866  -0,507147530749943  -0,770794474309362  0,050029296875  0,021903096055984488  0,14799694610357503  -0,37174339359482644  -1,4762526812195527  -35,06875  2646,129023437501  51,4405387164394  0,147099547174064  -1,4238695304789022  -18,215  205,200728125  14,324829078386939  -0,15806781936156505  -1,2119879231606785  -69,2825  19005,55081875  137,86062098637885  -0,10948147854437568  -1,4536609877453743
142  0,59173095703125  0,018438969677686694  0,13579016782406117  -0,10709811792203204  -1,2233819593183028  0,5517333984375  0,15202510297298433  0,3899039663468228  -0,2266364752586373  -1,1724158519875176  0,06067626953125  0,010153359717130654  0,1007638810146307  -0,27467414122444506  -1,592202073095462  102,59625  328,53636093750015  18,125572016835775  -0,8914572902710767  -0,10189410782637731  22,49125  177,7760171875  13,333267311034456  -0,4238284179755429  -0,9514084450755651  172,036875  1033,4057886718747  32,14662950717967  -0,34977957001180876  -1,3413646826566634
143  0,79553466796875  0,003683673733472822  0,06069327585056537  -0,34760536656353813  -0,8518787893853461  -0,52844970703125  0,07442425782084465  0,2728080970588018  -0,8101902235066017  -0,4980141000135645  0,10286865234375  0,005209827870130538  0,07217913736067048  -0,5977422448193997  -0,7408486068622815  116,6  579,1879687499999  24,0663243714116  -0,9363831443722871  -0,1763212202443034  -24,616875  152,5005980468749  12,349113249414911  0,2352199525587785  -1,5797548820241252  136,40375  717,0930015625001  26,77859222518055  0,5109288355473629  0,29733065863474106
144  0,6156982421875  0,002027947306632997  0,04503273594434384  0,11560491035139618  -1,3140131886740616  -1,131865234375  0,0807929829120636  0,2842410647884355  0,3136160884823479  -1,3172335914490627  -0,12681884765625  0,005767997950315475  0,0759473366900741  0,046761780729508665  -1,4690723838308588  -31,529375  3465,789019921876  58,870952259343284  -0,057632916723599575  -0,9218547063228173  9,96875  718,6305859375  26,80728606064963  -0,5744246234751149  -1,2457362162998395  -31,91875  6207,179648437508  78,78565636229419  0,6142089698276694  -1,1654038609145296
145  0,79849853515625  0,007894267290830613  0,08884968931195321  -0,24615587731173658  -1,595087307159984  -0,32839599609375  0,029595606201887125  0,17203373565056107  0,050205345436591955  -1,323418344691107  0,13271240234375  0,010899425858259199  0,1044003154126423  -0,41853079497128426  -1,3572177634622973  -137,529375  170,693316796875  13,064965242849864  0,024596626247932067  -0,9139569794931841  38,90125  41,697592187499986  6,457367279898208  -0,6707826195958756  -1,0293025839306973  -103,845625  171,833473046875  13,108526730600774  -1,697023008493722  3,407413300275876
146  0,7227587890625  0,0031749381780624367  0,05634658976426556  0,2663647611228229  -0,614830683372301  0,9499169921875  0,1907990622758866  0,43680551996957023  -0,6994640709680734  -0,9062064211453658  0,2544189453125  0,0063273268938064545  0,07954449631373911  0,2703980328580636  -0,6378266680731102  -64,235625  2785,057176171875  52,77364092207279  0,4683030192133586  -1,1047776652309793  23,000625  650,1298824218749  25,49764464459168  0,057186394200239896  -1,1393364094405705  -138,359375  4527,680263671875  67,28803952911598  0,5490636687865367  -0,9336398343859984
147  0,71892578125  0,0022086680889129642  0,04699646889834346  -0,04566383376450578  -1,0948368155512325  0,73438232421875  0,12439529830813417  0,352697176495835  -0,08573103576393  -1,2076044493634148  0,14383056640625  0,0008277340590953826  0,02877036772610636  0,21142288502745246  -0,5532202477057715  98,47625  1284,3533421875004  35,83787580462185  -0,5620235757450783  -0,9960739847032798  -26,39875  52,84201406250003  7,269251272483297  -0,26244648950561306  -0,9516384282947445  116,670625  1776,3853011718736  42,14718615959876  -0,7657292184019515  -0,5604155323934203
148  0,685390625  0,0017638927936553946  0,041998723714601074  0,17953708516794287  -1,3147774609069065  -0,28903076171875  0,06668378788828852  0,258232042721829  -0,38253500690104547  -0,7318061377301115  0,02922607421875  0,0006861249148845668  0,02619398623509921  -0,24961690722540641  -1,2451247255864117  147,2  258,94859375  16,091879745697828  -0,7257459974734523  0,7304002462972776  -19,753125  97,33096679687496  9,865645787117789  0,007014594845931262  -0,9396965466824914  133,990625  397,07010742187515  19,926618062829306  -0,08571432646327569  -0,6398474693255407
149  0,62572509765625  0,00032923037409782424  0,01814470650349088  0,38486114374313474  -0,501743958167582  -1,34544921875  0,09707146039009099  0,311562931668854  0,09911844184832819  -1,3594198183009598  0,07306396484375  0,000296599692106247  0,017222069913522212  0,10811584430804129  -1,0094654208903546  -6,72625  4664,937951562501  68,30035103542662  0,12697513697587773  -1,630387247844753  -2,55875  17,59678281249998  4,194851941666116  -0,4051239034046513  -0,427757293023141  13,225625  13384,112413671866  115,68972475406736  -0,18699505696307833  -1,486024916449049
