ventana  acc_x__mean  acc_x__var  acc_x__std  acc_x__skew  acc_x__kurtosis  acc_y__mean  acc_y__var  acc_y__std  acc_y__skew  acc_y__kurtosis  acc_z__mean  acc_z__var  acc_z__std  acc_z__skew  acc_z__kurtosis  gyro_x__mean  gyro_x__var  gyro_x__std  gyro_x__skew  gyro_x__kurtosis  gyro_y__mean  gyro_y__var  gyro_y__std  gyro_y__skew  gyro_y__kurtosis  gyro_z__mean  gyro_z__var  gyro_z__std  gyro_z__skew  gyro_z__kurtosis
1  0,786484375  0,004949051523208621  0,07034949554338411  0,6654925498062805  -1,1721832464235977  0,6052783203125  0,11529628942012785  0,33955307305357707  0,030366919767509895  -1,4642299552084117  -0,20881591796875  0,0025289758384227762  0,05028892361567084  0,6955147485794663  -0,32943778264563495  -67,098125  475,65470742187523  21,809509563992382  0,9472282228827436  -0,6775425028435405  -5,5425  289,221553125  17,006515019985724  0,05583028953128797  -1,4929629155027389  -102,9675  1097,7940218749998  33,13297484191541  1,1671356219191222  -0,06336738918781437
2  0,887548828125  0,0039433717727661135  0,06279627196550853  -0,2037729375777588  -1,4598774917719506  0,76732177734375  0,10413652464747435  0,32270191299010664  -0,1700142244370632  -1,3164096985125893  -0,02494873046875  0,0012436278998851772  0,03526510881714641  0,23986098462748953  -1,4970753926958817  48,6025  1152,288321875  33,94537261358314  -0,4818659330436465  -0,6106643931121543  5,603125  64,86690429687496  8,053999273458805  1,098904439563706  0,06476476333417702  74,979375  2170,0482855468754  46,58377706398307  -0,7026928446180627  -0,9174260522067059
3  0,739619140625  0,0004556399345397951  0,021345724034096267  -0,4973885964665751  -0,9374955734079986  -0,1998583984375  0,07674710724353791  0,27703268262704656  -0,3101364417160801  -1,096069270496094  -0,01820556640625  0,003079608982801439  0,0554942247698032  0,20675096076239566  -1,6951824404423408  86,04125  17,28665781249999  4,157722671427231  -0,05133974876033549  -1,281351010684599  17,885  67,33989999999999  8,206089202537344  0,6700893900865074  -1,0515554665401177  128,319375  170,371866796875  13,052657461102509  -0,20119732725479134  -0,38087724653002697
4  0,792802734375  0,00405507788658142  0,06367949345418367  -0,201459998767387  -1,6936809173875937  -0,9389208984375  0,015192437624931327  0,12325760676295532  -0,04475864521448347  -1,4992139630962842  0,25755859375  0,0237932478427887  0,15425060078582742  -0,2066896107596266  -1,774193182371833  14,489375  1394,2159417968753  37,33920114031466  -0,034037526041333185  -1,3155604962425542  14,818125  244,409773046875  15,633610365071627  -0,4709941909004664  -0,8587134151627716  14,206875  2525,0873980468755  50,25024774114925  -0,3511770099245278  -1,3596571063426257
5  0,7851904296875  0,0013893127679824831  0,037273486125964705  0,20012135023787078  -1,0982597318014635  -0,417255859375  0,05244570336341859  0,22901026912219152  -0,04185763690218681  -1,1745403553587332  0,12280517578125  0,02518002449870109  0,15868214927552843  0,22703387175115672  -1,2766703121652672  -81,5175  102,34297500000007  10,116470481348722  -0,11921181880720906  -1,249740653105838  -45,3675  84,95424062499998  9,217062472664487  1,4920273208010548  1,0964882013834023  -104,928125  418,586982421875  20,459398388561553  0,7290030121078972  -0,7405411680314216
6  0,76458984375  0,0007781518936157228  0,027895374054056395  1,59232586044558  1,6350610079182095  0,5199267578125  0,11483215305805204  0,338868931975258  0,1694396084881286  -1,2957292084917644  -0,23624755859375  0,0034283805549144746  0,05855237446008893  0,43468847708988645  -1,1898967257229263  -76,526875  368,27830117187494  19,19057844807902  1,105995169998079  0,20141637138084745  -23,000625  205,4617574218749  14,333937261683369  0,30286334838955464  -1,1504184886090352  -106,4525  702,0889156249998  26,496960497857103  1,1093042411193834  0,015328395683130047
7  0,8600439453125  0,0002383430242538452  0,015438362097510384  -0,8788502026305787  -0,7693371194588354  0,78721923828125  0,07108951017260551  0,26662616183076543  -0,40459300253840286  -1,118123953772447  -0,13892578125  0,00536556711196899  0,07325003148101024  -0,9322182518187553  -0,5837823968155309  38,4125  1134,4469531250006  33,681552118704396  -0,33742617908870487  -1,2244043215512723  15,505  19,81911562499999  4,4518665327028835  -0,029598591987242642  1,6424415660757203  61,495625  2177,2965824218754  46,66151071731257  -0,3215047320986483  -0,9655365715127591
8  0,8006494140625  0,0001595001459121704  0,012629336717031913  -0,46302495706484365  0,15000696674826086  -0,11708984375  0,030137227773666384  0,17360077123580525  0,02501041438160787  -0,8047150689982838  -0,05417724609375  0,00012943636775016794  0,011377010492663172  0,22985266240000105  -0,7979727321859302  77,436875  73,86316367187499  8,594368136860032  -1,2819698176425318  0,22654845558492287  10,78875  6,696310937499998  2,587723118399648  0,0667925230305644  -0,6692001896672402  105,593125  281,05027304687496  16,7645540664485  0,5100847752966687  -1,2859569287228854
9  0,83469970703125  0,0025706079661846175  0,05070116336125452  0,009322000985464955  -1,6443538176115107  -0,8070751953125  0,030511329865455603  0,17467492626434855  0,7582681872906822  -0,961586309329383  0,1183740234375  0,015404678606987004  0,1241155856731418  -0,4172678930706  -1,528146108706972  37,805625  1220,664679296874  34,93801195398608  -0,3196404837960225  -0,8993055306173079  10,8275  153,57055624999998  12,39235878475119  0,1861928385955661  -1,4679245986871836  31,2125  1344,8217968750012  36,671812020610616  -0,30150088101167044  -1,5204109578261733
10  0,85479248046875  0,0003720269858837128  0,019288001085745323  0,2848500206484185  -0,17409074748975772  -0,44598876953125  0,07186423284411438  0,2680750507677176  -0,31782947383953786  -1,2091391034106191  0,094140625  0,01398811697959901  0,1182713700757669  -0,31597153163656255  -1,2375863545432075  -72,71875  222,3172265625  14,910306051939376  0,6371167355437578  -1,032961402461508  -34,455  134,88438124999996  11,613973534066623  0,4874567636006977  -1,0189939280476663  -79,185  238,07061875000002  15,429537217622569  1,6405167617171839  1,5226299638850298
11  0,78037353515625  0,0003458775222301483  0,01859778272349014  0,00504319019259731  -1,3739912413764133  0,2017626953125  0,026084114527702318  0,16150577242842534  0,4295514876894812  -0,7942387418058643  -0,2637841796875  0,0055699794530868554  0,07463229497400475  0,7093124527056563  -0,941079002421179  -74,565  75,61905625  8,695921817150841  0,2998063318669684  -0,8660649286352817  -25,4325  221,70950625000012  14,889912902700274  0,39514732674431385  -1,3141308023488834  -85,450625  15,548226171875006  3,943123910286742  0,5041334846068574  -1,0407696636026886
12  0,8528759765625  0,00105152461528778  0,032427220283085936  -0,3108473660794705  -1,1055664398037381  0,836162109375  0,024873174047470078  0,15771231419096632  -0,2723619587977907  -1,3535125928929106  -0,22190673828125  0,0033909764945507024  0,05823209162094989  -0,6504335470339067  -0,7024405280111083  -2,921875  1311,046669921875  36,20837844921911  -0,1174859040456267  -1,2874335204847356  12,370625  14,701816796874999  3,834294823937643  -0,9025546423836693  0,3409511926312607  -6,179375  2871,044269921876  53,582126403511424  0,2986749609505698  -1,3782578493901816
13  0,83876708984375  0,00015049349665641773  0,012267579087025188  -0,48186089984242386  -0,45034559592371526  0,20934326171875  0,029768200463056563  0,17253463554618986  0,3117646682072124  -1,161478684872671  -0,1165966796875  0,002505377745628356  0,050053748567198804  0,6692826493885833  -0,7594163498352544  73,083125  107,18703554687498  10,353117189855189  0,03030694802746796  -0,9497924754600411  29,3975  94,20168124999998  9,705755058211595  0,3195560535955991  -1,3613546245582637  81,27125  47,35736093750002  6,8816684704728415  0,026047831877123853  -1,4156123499547668
14  0,8319482421875  0,0003974404573440551  0,019935908741365544  0,9299123946737375  0,05549933017774045  -0,37095703125  0,06342413582801822  0,2518414894889605  -0,18694835713824395  -1,3238397936311923  0,04419677734375  0,0070750635325908685  0,08411339686750778  1,0803352196663711  0,3335707629827058  65,2525  165,48038437500003  12,863917924761493  -0,6931327116020253  -0,33969687812378924  36,01625  39,59926718750002  6,292794862976229  0,3319957170781307  -1,0419488279660547  73,935625  97,39386367187497  9,868832943761637  -0,7974936218678079  1,027025937664531
15  0,9157421875  0,0014962879180908204  0,0386818810050755  -0,14014209535924974  -1,458453114254515  -0,77090576171875  0,015260570830106733  0,12353368297799079  0,9261585034334014  -0,4723971802482878  0,30673583984375  0,005509760254621505  0,07422775932642386  -0,047740202817947774  -1,3366737506227804  -10,568125  1206,2301636718753  34,73082440242205  0,02183804574862281  -1,404027776833772  -3,74875  449,89429531250005  21,210711805889495  0,42065855652523837  -1,4851821410140378  -26,745  1366,24044375  36,962689887912646  0,17399658867518963  -1,368045821757333
16  0,8369189453125  0,00037101981639862085  0,019261874685466647  -0,39736648008499154  -0,9876645686503935  -0,12001953125  0,03602651238441467  0,18980651301895482  -0,27344079965976326  -1,2027111533754133  0,0867041015625  0,006636987948417664  0,08146771107879283  -0,6012872721972948  -1,142194793236125  -74,64375  62,45800781249997  7,903037885047747  -0,029663667473927992  -0,9666090406813947  -33,619375  44,79250742187501  6,692720479885217  0,07517624094993339  -1,5606720941425807  -98,50375  35,54912656250002  5,962308828172189  0,9733086789189689  0,7268383296236598
17  0,7828173828125  0,00019195101261138906  0,013854638667658896  -0,28041056328121733  0,04980477064604294  0,5475732421875  0,07280889394283294  0,2698312323339034  0,4461804451401874  -1,24262088730299  -0,1280712890625  0,0008562483549118043  0,029261721666911607  1,2770834115319378  0,759589880822976  -63,565  205,316634375  14,328874148899487  0,3768966242490275  -1,5981511067463916  -12,9925  205,3529124999999  14,330140002805273  -0,33735106823694994  -1,6221121705575825  -90,879375  269,3626761718751  16,412272120942763  1,333159992992152  0,8837796320947731
18  0,824365234375  0,0017820882797241217  0,04221478745326242  0,4442396937899505  -1,3822129343463887  0,94293212890625  0,06281897708773614  0,2506371422749153  -0,5065741706152626  -1,233069373744581  -0,01893798828125  0,0048904743850231155  0,06993192679329746  0,271192088494569  -1,0195509315473936  43,085625  981,4780980468751  31,328550844986033  -0,33235990128372894  -0,5273580474066968  7,68625  166,27640468749996  12,894820847437158  -0,59309277368391  -1,1514385882209894  55,27625  2803,2003265624994  52,94525782884148  -0,45350147487173703  -1,1905036262389783
19  0,77814697265625  0,0003699020087718963  0,01923283673231529  0,056894008404998565  -1,2559740386214218  -0,0072314453125  0,039896536803245564  0,19974117453155613  0,4109086539995384  -0,7546865788186232  0,0173095703125  0,0006848412752151492  0,02616947219978174  0,23385992185047613  -0,9466338680101578  74,808125  222,0779105468751  14,902278703167347  -0,4306398776174342  -0,9922404232370043  20,653125  35,37518554687499  5,94770422489846  0,14266253950338914  -1,1195665712275809  116,505  232,18755312500008  15,237701700879962  -0,039072542741557165  -1,158284887893827
20  0,8586083984375  0,00384801986217499  0,06203240977243259  -0,07516158868972672  -1,5988645870043376  -0,81707275390625  0,06121429187655445  0,24741522159429571  0,709373574975528  -1,0012643830986623  0,25353515625  0,02366000590324403  0,15381809354963424  -0,1431074422621881  -1,6214167063857832  34,24125  1208,9051578124995  34,76931345040479  -0,48558607716257257  -0,5949873720471546  16,949375  356,69325742187505  18,88632461390715  -0,8896385126817707  -0,6990484507722816  49,0575  2827,3626312499996  53,17295018381056  -0,5378016411469132  -1,2314440843228636
21  0,8489453125  0,002126268243789673  0,04611147626990133  0,32683277401262967  -0,9690068386543547  -0,42181640625  0,06709206476211542  0,25902135966386136  -0,11814615108695585  -1,1070059016245932  0,15891357421875  0,017983394974470136  0,13410218109512662  0,2570763904631769  -0,8261408336578677  -69,08  187,68086562500008  13,699666624593464  0,478987173066455  -1,211532483989052  -40,408125  14,733238671875018  3,8383901146020865  1,0681959492402677  1,6178576411454122  -92,1025  180,09285312500012  13,419867850504346  0,5653925271336396  0,09417529840093675
22  0,74998046875  0,0006444188117980957  0,0253854054881559  0,5190620001226449  -1,1375576675292163  0,38922607421875  0,08220262510180473  0,28671000174706973  0,29931033421507314  -1,2924979879587415  -0,1459912109375  0,001954472041130066  0,04420941122804132  0,17322225795165458  -1,1101289135968595  -80,16375  104,48748281249999  10,22191189614252  0,07873277168409935  -1,2803579381369237  -16,70125  356,65379531249994  18,885279857934325  0,09872895550058697  -1,5466089456034346  -106,76375  118,15051406250001  10,869706254655643  1,8012327136970074  2,456531397949343
23  0,82297119140625  0,00028497683405876166  0,016881256886226263  -0,21073536135255416  -0,9756497132563573  0,99958740234375  0,03865030133128166  0,19659679888360762  -0,5919246305452948  -0,8810048842592382  -0,03751708984375  0,0013223744094371795  0,03636446630210843  0,0033605155853587967  -0,9838360153848025  16,244375  1912,0314136718753  43,72678142365243  -0,1643003889255279  -1,248810281248732  10,415  28,494415625  5,338016075753238  0,05949665861523848  -1,451899399422595  24,778125  3430,5112011718766  58,57056599668366  -0,12627071751729058  -1,5026155802941457
24  0,8164794921875  0,0004464060068130495  0,02112832238520251  -0,2379948131845373  -1,0129807873155283  0,14029052734375  0,03917044240832329  0,1979152404650114  0,7831648126537109  -0,6573353795392491  0,0032861328125  0,00043521096706390384  0,020861710549806404  -0,1873623232910395  -1,132573035546947  77,505  128,97911562500002  11,356897271041946  -0,7879826268419681  0,4296243167312568  16,276875  17,591660546875005  4,194241355343658  -0,36154957986519737  -1,3028641022133525  106,939375  113,22909804687504  10,64091622215282  0,2604962060110487  -1,4762241704117716
25  0,82953125  0,003283736848831177  0,05730389907180119  0,6636256491584347  -1,2496245600985227  -0,492294921875  0,09582713165283206  0,3095595769037554  -0,44052242178653983  -1,1256844197879126  0,096494140625  0,0252023602962494  0,15875251272420668  0,9857188556836682  -0,6192159185415438  52,811875  466,97683554687495  21,60964681680094  -0,10203253632387624  -0,5472676378256756  30,02375  119,48537343749993  10,930936530668355  0,8721018150995342  -0,2418257631035683  82,3775  487,48405625000015  22,079041108028225  -0,8592654665304276  -0,05688387394066474
26  0,90642333984375  0,0027580002486705803  0,052516666389543235  0,2888705115953541  -1,3865454140336229  -0,7757568359375  0,04691874325275421  0,21660734810424648  0,4593923315309258  -1,2635657396345696  0,31471435546875  0,010062436169385907  0,10031169507782184  -0,13460272053513325  -1,4055734478564488  -38,054375  1640,1374730468744  40,498610754529274  0,8968349619165028  -0,4721931874324423  -23,155625  348,32300742187493  18,663413605819137  0,5006463428414815  -1,5068922519584032  -52,30375  1146,0322671875006  33,8530983395538  0,23461974640322839  -1,4777269468966603
27  0,77816650390625  0,0008869631946086885  0,02978192731521398  -0,10708136878502633  -0,7626214793521315  -0,0391015625  0,041156290435791006  0,20287013194600875  -0,0695498513740592  -1,1310757557886926  0,0065283203125  0,004259135270118714  0,06526205076550011  0,04157909242739797  -1,0321085651875508  -90,5575  22,805209375000004  4,7754800151398396  -0,22628302015384943  -0,9386402704533379  -39,438125  8,104179296874998  2,8467840270865294  0,6560977241125713  -0,15113052674199912  -115,428125  76,07706054687495  8,72221649277722  1,1079243293657866  0,0070157711465932415
28  0,7135302734375  0,0022974691152572637  0,047931921672902535  1,0187964163637888  -0,050003425623391884  0,97263916015625  0,12186628729701032  0,34909352227878754  -0,3824840998225845  -1,2373324479530992  -0,174541015625  0,005427623605728149  0,07367240735667696  0,43997990341605026  -0,7139048656113296  -40,2175  1575,7927718750009  39,6962563962271  0,11740507854149933  -1,4763458310972282  6,97875  642,2811890625  25,343267134734226  -0,289981385804783  -1,6556567218922915  -67,92  3056,4814906250012  55,28545460268009  0,760606765530163  -0,7372150662806112
29  0,78869873046875  0,00048419415354728656  0,022004412138189162  0,01859168848804412  -1,1184952101727168  0,6263525390625  0,09882085731029505  0,31435784913104214  0,3195707193386837  -1,296861376015871  0,0005810546875  0,0005985495805740354  0,02446527295114517  -0,5469340913736462  -0,7023441182323165  66,71375  390,25470156250014  19,7548652630814  -0,5831124576176351  -0,21413735582722815  19,78  39,02347500000002  6,246877219859537  0,8555538540972651  -0,8889746188553658  96,173125  452,88108242187445  21,281002852823324  -0,8208198103143548  -0,9045035664847618
30  0,77278564453125  0,0023484850585460664  0,04846117062707077  -0,8562434552722935  -0,33593014088072204  -0,0927001953125  0,010821794867515557  0,10402785620936134  1,310306601326896  0,9902786378062531  0,0647900390625  0,0013594910860061646  0,03687127724945482  -0,05363816337171599  -0,7882957777509914  88,509375  138,195263671875  11,755648160432287  1,4736317384455377  1,1095756918816804  32,0225  39,84730625  6,312472277166847  1,052854090157321  2,3620842567177984  95,91375  408,7874828125001  20,218493584154587  -0,04063961821697968  -1,1573260364993803
31  0,923056640625  0,00608337368965149  0,07799598508674334  -0,8191246887470868  -0,5238090459857037  -0,87851318359375  0,09221432315707213  0,3036681135006969  0,750290724315775  -1,0345363774150171  0,5046728515625  0,03397729279994965  0,1843293053205313  -1,039348953389959  0,19269519181171013  34,4525  1600,458993750001  40,0057370104589  -0,08104036910865761  -0,7943526059754324  26,798125  1822,1795199218745  42,68699473987217  -0,03453540459458942  -1,5970573299917559  40,786875  2646,957194921876  51,44858788073659  -0,4227589656531187  -1,5095482935085545
32  0,8122998046875  0,00036429808139801034  0,01908659428494278  1,419839903240147  1,2707049896628861  -0,46093017578125  0,0737772374808788  0,2716196559177535  -0,0544932806395727  -1,2484099679271723  0,287431640625  0,003559940910339355  0,05966524038616919  1,20921740183929  0,5836830789493823  -70,26  60,866071875000024  7,801671095028297  0,6187006222917716  -0,7637735729350141  -35,5425  7,836787500000006  2,7994262805082055  -0,5420441788031872  -0,8666605154441478  -98,24625  502,93287656250027  22,426164999002843  0,8816886733236722  -0,5349805291050838
33  0,742685546875  0,001261680030822754  0,03552013556875528  0,0038488851161528207  -0,9370439211761217  0,27034423828125  0,08813349849581723  0,2968728658800215  0,9820382250324758  -0,4546972194390495  0,106259765625  0,0041727258205413835  0,06459663939046198  -1,5328681057454705  2,8586395371559963  -70,631875  89,57874179687504  9,464604682546177  0,10267516527339163  -1,3174705260846824  -36,4375  110,400234375  10,507151582374739  -1,1784350476399235  0,2871609796788026  -123,6975  200,227790625  14,15018694664491  -0,09731751405707224  -1,4786947353542503
34  0,74372314453125  0,0004876295268535616  0,022082335176642022  -0,0070795478099589726  -0,35884884800641714  1,13483642578125  0,03843886768221856  0,19605832724528321  -0,8172351715880432  -0,6090313065512576  -0,19127685546875  0,0036081236064434063  0,06006765857300754  0,4481867984462078  -1,0766472856723497  -3,08875  1711,1457171875  41,36599711342034  -0,14791305080024514  -1,592653045141622  -5,528125  758,689873046874  27,544325605229  -0,5577032796255356  -0,9043989574238251  9,474375  4540,237038671874  67,38128107027852  -0,34397449995579243  -1,1526864460281645
35  0,81065673828125  0,0003846113383769991  0,019611510354304664  0,7674317474136211  -0,45812949352575494  0,2487255859375  0,04458959052562714  0,21116247423637358  0,41713933913053436  -0,9500377942302238  0,09628173828125  0,005233556813001633  0,0723433259741466  -0,7686412763100297  -0,7033237373043644  59,1425  101,92414687499993  10,095748950672254  0,4207538600842912  0,0031512482393232233  31,954375  68,22772304687501  8,260007448354694  -0,12018345656726742  -1,1650735285325295  115,016875  121,38795742187502  11,017620315743097  0,0703290338746891  -1,062149362421188
36  0,8026904296875  0,000601621127128601  0,024527966224874843  0,1881177985988103  -0,0972972595079189  -0,3331591796875  0,06008790228366851  0,24512833839372491  -0,38258848334123696  -0,8738705107128526  0,24306884765625  0,008417451256513598  0,0917466689123567  0,4610487373635328  -1,0939632287568912  71,965  445,29158749999993  21,10193326451394  0,009765518137437338  -1,1666250087271903  20,37  147,29575624999998  12,136546306507464  -0,3183430719427726  -1,0388279388348796  95,885625  129,96891054687492  11,400390806760745  0,4248560326498658  -1,1480266373790913
37  0,8690185546875  2,155005931854248e-05  0,004642204144427783  0,09699504646375985  -1,1787027079067922  -0,9258642578125  0,044317817950248715  0,21051797536136604  0,26779665068300434  -1,242426496156866  0,4060400390625  0,0016893124818801886  0,04110124671929294  0,4842194014080607  -1,1529693446981102  -9,169375  1526,4008042968749  39,069179723880495  -0,220222479070796  -1,5952298658995132  -12,344375  164,19394492187507  12,813818514473938  0,07628223823624918  -1,7050969434932528  -18,73  3278,18506875  57,255437023482756  0,5980553772511572  -1,2137656976232771
38  0,81501708984375  0,0012483843505382542  0,0353324829376348  -0,5936084585875093  -0,6276700475264563  -0,24681640625  0,020850847864151006  0,14439822666553426  -0,2561798115453389  -1,0440985623551133  0,19714111328125  0,006390383833646774  0,0799398763674724  -0,025138590209548273  -1,198602149444893  -72,403125  53,984951171875  7,347445213941714  0,2789833724546179  -0,7986872653443218  -43,9975  68,23968125000002  8,26073127816176  0,00030049827148908095  -1,401682722081517  -107,71375  183,83071718750006  13,558418683146646  -0,6362919656674858  -0,4861453326107057
39  0,7044189453125  0,0016554301977157579  0,04068697823279283  -0,057549779868829976  -1,6016411279518188  0,5202001953125  0,11523464157581334  0,3394622829944637  0,24080507050870859  -1,2837988957707518  -0,05803955078125  0,014034113711118696  0,1184656646928497  -0,4589835884573219  -1,2482983755760377  -74,415625  47,76213867187498  6,911015748200476  1,5480632191188346  1,269814295632461  -42,99  70,314665625  8,385384047555604  1,0319696996925285  0,3337584968348044  -122,840625  178,74979492187506  13,369734287631713  1,4865242740637548  1,0080602995601824
40  0,73898681640625  0,0030193720996379834  0,054948813450683205  -0,8060183886863374  -1,0230014341368758  1,12818115234375  0,054949058836698574  0,234412155906426  -0,4876113297849636  -1,086934538705797  -0,11  0,01097508230209351  0,10476202700450918  -0,40025520932665504  -1,6137630746810203  10,4625  1358,2404687500007  36,85431411314014  -0,26655317080622604  -1,263099655193855  14,851875  159,57231679687504  12,632193665269506  -1,2190513999223274  0,10092666755373969  36,485625  4100,212801171875  64,03290405074469  -0,44999782634576657  -1,210733667189647
41  0,75975830078125  0,0004138963878154754  0,020344443659522257  -0,22596568510044052  -1,1485027410817104  0,23234130859375  0,06545287973284726  0,25583760421964413  -0,16872150982955272  -1,3207026004964306  0,05738037109375  0,002435675209760666  0,04935256031616461  0,6905815987728463  -0,5928038000219713  84,290625  135,598779296875  11,644688887938354  0,5998617643087996  -0,8123937284386078  21,718125  40,28863242187498  6,3473327013695275  0,7540336075942203  -0,7105878767187188  133,735  152,62844687499998  12,354288602546081  0,4262917155151954  -0,4379941302302526
42  0,80733642578125  0,0008392839133739472  0,02897039719047613  -1,0339242388848084  0,013676344857525446  -0,5439208984375  0,06630829632282255  0,25750397341171755  -0,5103216359761032  -0,8872620165329437  0,16143310546875  0,0043880723178386675  0,0662425265055513  0,5972899233780083  -0,8692368412750153  74,159375  486,8861230468745  22,065496211208902  -0,016833886382369646  -1,4049679954590018  13,339375  53,56783242187502  7,319004879208308  -0,44482770039308533  -0,7172833603011428  86,09625  636,5733140625  25,23040455606093  -0,5244502499616214  -0,17900898243875885
43  0,90218994140625  0,001043254917860031  0,03229945692825238  0,20928951209640825  -1,3282359213231474  -0,79454833984375  0,05913027817606928  0,24316718153580938  0,20864046537145825  -1,3233668819367272  0,3297509765625  0,005984187388420101  0,07735752961683885  -0,37759109508313354  -1,35647207411081  -23,771875  1660,1354199218754  40,74475941666456  0,6841742956715682  -1,192897184813191  -21,105625  413,19716367187493  20,327251749114414  0,571672859077597  -0,9960259554101016  -62,218125  873,0825386718748  29,54797012777485  0,4117211488818798  -0,4139563577016716
44  0,80476806640625  0,002418285673856737  0,04917606810082255  -0,3292478613650666  -1,4069724612673962  -0,0379443359375  0,027291699862480163  0,16520199715039816  0,06146578037899447  -0,9493797044283738  0,04042236328125  0,008574006861448286  0,09259593328785172  -0,2385580961604164  -1,2288244977885294  -82,15  36,647109375  6,05368560258955  -0,6254720416830746  -0,5524409554288754  -50,909375  17,647529296875003  4,20089624923956  -0,471054439218774  -1,133270808900613  -108,383125  19,171613671875  4,378540130211781  0,28224201251651543  -1,0136923544504302
45  0,70568115234375  0,0008410185039043432  0,02900031903107866  0,8824590855387647  -0,11808010116001189  0,80099609375  0,10336690101623536  0,3215072332253745  -0,03940256003987883  -1,4043590464911437  -0,21172607421875  0,002333824461698531  0,048309672548036704  0,1094318484619679  -0,9871024322683084  -65,736875  291,63158554687504  17,077224175693047  1,5252281566137638  1,4143317749648858  -15,440625  409,6489355468751  20,23978595605386  0,12857932447831533  -1,3484893056279865  -80,96875  1102,2103515625  33,199553484384396  0,8593815198046297  -0,6743039360516945
46  0,78748779296875  0,0002820126712322235  0,016793232899957752  -0,5976396279644817  0,18472711127539299  0,8293017578125  0,09322464749813085  0,305327115563179  -0,09884518921221801  -1,4797670643518146  -0,05343994140625  0,0009228264033794402  0,030378057926395495  -0,6549702733519751  0,6667029120194434  43,95625  801,1172265624991  28,30401431886472  0,035304320217363114  -0,8817855164660293  14,1625  30,547890625000004  5,527014621384677  -0,04798151583346063  -0,8691469831168277  84,690625  1601,2733886718736  40,01591419262933  -0,7517463561527775  -0,8852372056851538
47  0,7804931640625  0,0007742053270339965  0,027824545405702436  0,00018187874852922621  -0,8361687011569785  -0,01752197265625  0,0274153803050518  0,1655759049652207  0,1334107903003394  -1,0341781406794073  0,02186279296875  0,004812555760145188  0,06937258651762372  0,10759042312980578  -1,1727315010871626  91,530625  167,41246054687494  12,938796719435503  -0,4476791549945607  -1,0067737693549923  43,775625  110,76078867187492  10,524295162711606  -0,024211267983876364  -1,2126000367454999  106,24  196,069275  14,002473888566977  -0,09501258394878946  -1,4266106241401801
48  0,90329833984375  0,0007138003051280976  0,02671704147408724  -0,8396348833061645  0,08936614328905756  -0,7508447265625  0,040768540406227086  0,20191220965119244  0,7449304450376788  -0,9800314288371639  0,32200439453125  0,002335237568616866  0,0483242958419144  -0,7439726659202913  -0,44942880112531425  30,866875  783,6238792968751  27,993282753133386  -0,3463504215750829  -0,7308503156143802  14,2125  361,90601562499995  19,023827575569538  0,4402268352168851  -0,9689200664618274  44,4925  1964,2738499999996  44,320129173999476  -0,36140442112089577  -1,5147133055996576
49  0,88363525390625  0,00010115105509758  0,010057388085262495  0,42646653838838694  -0,8277784822441836  -0,42992919921875  0,037623998516798006  0,19396906587597418  -0,394894156592688  -1,1021961684305988  0,22068359375  0,003928627586364744  0,06267876503541485  0,06300360673514856  -1,22143602099808  -54,835625  108,95130117187504  10,437973997470728  0,44294819453808554  0,3103983362697562  -26,9425  81,29684999999999  9,016476584564504  -0,03142892089525521  -1,3032528097858507  -72,885625  313,5051605468753  17,706076938352982  0,9396489153883617  -0,44243721224924126
50  0,81717041015625  0,0012714191138744348  0,03565696445120413  -0,45858571820031363  -1,0372824734199728  0,1280615234375  0,02430373480319977  0,1558965516077882  -0,08412676250795488  -1,0333731922239222  -0,0355615234375  0,004426605963706975  0,066532743545618  0,1649469448730502  -0,8054929388350245  -67,4625  92,15171875000004  9,599568675206196  -0,6336011605867876  -0,7337056846878967  -41,734375  33,566357421875  5,793648023644083  0,2670487133546161  -1,1553439269465657  -98,331875  28,807632421874995  5,367274207814893  0,9171313844410277  -0,5577975596218048
51  0,8021630859375  0,0017074718713760368  0,04132156666168451  0,15542470268260128  -1,1113027490904506  0,90970947265625  0,041477445429563484  0,20366012233513828  -0,9362263159226013  -0,6039527423042519  -0,1384326171875  0,0020070278406143184  0,044799864292364974  1,3282289460410432  0,3542422982447384  -38,815  2211,4778062500004  47,02635225328454  0,19326145073622727  -1,5933104874190671  -3,000625  272,8766011718751  16,518977001372544  0,3783993284715195  -1,3703316069812652  -29,296875  2584,099013671875  50,83403400942989  -0,20245724538665466  -1,1162916137809347
52  0,83319091796875  0,0004085366427898407  0,02021228940001208  -0,034195662764963566  -0,7160733218891115  0,4605224609375  0,04262381732463843  0,20645536400064404  0,14621360651366652  -0,8190712918733865  -0,02554443359375  0,0007916422545909879  0,028136137876243566  0,9270738022151903  0,9091413888743709  62,294375  244,08681992187496  15,62327814262663  -0,7676389367304313  -0,41534625815238835  18,383125  42,675363671875004  6,532638339283372  1,0068474929854874  0,061946858530801396  90,455625  171,44642929687495  13,093755355010837  0,4829742323253837  -0,537591672395858
53  0,81719482421875  0,0007114909350872046  0,02667378741549847  0,439618809682135  -0,6900356565495467  -0,1913525390625  0,05530373165607455  0,23516745450013815  -0,7358945701161805  -0,7213452340368174  0,118369140625  0,0047258790969848625  0,06874502961658292  0,6838279705509369  -1,2946590456117635  78,3775  34,96522812499999  5,913140293025355  0,09918578243185767  -1,110641359694417  28,886875  25,281851171875005  5,028106121779353  0,47068234830199596  -0,6852147698769793  98,2875  56,157265625  7,493815158182112  -0,2804304661080358  0,7024158608012674
54  0,9023193359375  0,0003025406599044798  0,01739369598171935  -0,28527737129401054  -0,9527127610662647  -0,84272705078125  0,013038076990842822  0,11418439906941237  0,2815200697578422  -1,0657561854454665  0,33905517578125  0,0031273875892162293  0,055923050607206946  -0,08990918543936165  -0,9220285813110398  12,515  1148,4146968750006  33,88826783527008  0,09755500100064454  -1,3306180032028854  1,635625  290,3393792968749  17,039347971588434  -0,0004995100377042716  -1,6090710677491067  -0,100625  2153,353507421875  46,40424018795992  0,0014977578493350135  -1,4623768375699921
55  0,8395947265625  0,0007511234045028689  0,027406630666735904  -0,28886295663739486  -0,42780244002408185  -0,21659423828125  0,03546930558085444  0,18833296466857427  -0,17216970850809804  -1,2046249835595555  0,14740478515625  0,005791840380430219  0,07610414167724526  0,2528990076014275  -0,9504597871749803  -72,6675  175,50295937500002  13,24775299343251  0,12261223833944153  -1,23360840569485  -39,516875  25,065144921875  5,006510253846985  1,311126202357935  0,6534013912266734  -97,806875  105,06969492187494  10,250350965790144  1,2555097052876465  0,08819709457196323
56  0,74419189453125  0,0003413048923015596  0,018474438890032887  0,6852482842206842  0,709572296928001  0,56831787109375  0,1074090445697308  0,3277331911322544  0,30553556159543843  -1,2356282431602563  -0,091484375  0,0020382739067077637  0,04514724694494409  0,07338640969454403  -1,40010166323703  -71,085625  160,102316796875  12,653154420810448  0,4317129954234434  -0,6599246871570719  -22,98875  221,0837796874999  14,868886296138657  0,3849991854441141  -0,7245107662244923  -104,92125  339,1916109375  18,41715534325266  1,5362490921090337  1,1982000744003312
57  0,8197021484375  0,0007008665800094605  0,026473884868100876  0,47806201463543546  -1,1090076398226931  0,959677734375  0,051376082563400274  0,22666292719234055  -0,6174344780408748  -1,1415213731281733  -0,02826904296875  0,0009191361606121049  0,03031725846134681  -0,04036794403926172  -0,2698479537876204  29,81  1102,0556968749997  33,197224234489845  -0,31815043691583683  -1,2401835901843195  9,530625  26,410507421875  5,139115431849629  0,06945994929112544  -1,1688414655979693  53,275625  2466,3980542968748  49,66284379993633  -0,40322771615395214  -1,1362103696204267
58  0,777490234375  0,0001848864555358886  0,0135972958905765  0,23530790777794414  -1,5700474750317603  0,09216796875  0,0707647412776947  0,26601643046566636  -0,11288236925797916  -1,1812308009915042  0,06896484375  0,0020017117023468024  0,044740492871076  0,13332361303011664  -1,8022926934006143  80,555  49,68986562500006  7,049103888083936  -0,5618802522521391  -0,9468200588071944  25,05625  41,79667968750004  6,46503516521759  0,7080728955447797  -0,9590770204927437  128,3525  110,30191562500003  10,502471881657195  0,17272322080209138  -1,2887566303628852
59  0,84300048828125  0,0034922280967235584  0,05909507675537412  0,504998899844106  -1,0939281292338374  -0,75471435546875  0,040536902779340744  0,20133778279135972  0,4967533855668104  -1,3773966701815545  0,219150390625  0,01296756567955017  0,11387521977827385  0,18857299727744906  -1,4158860842628385  50,359375  673,002060546875  25,94228325623778  -0,21159591837859232  -1,4865449592800357  20,32  33,23377187500001  5,764873968700444  0,0286203675001362  -1,197813041759398  47,8125  1947,892734375  44,1349377973392  -0,43691673987843543  -1,2031155281665937
60  0,90593994140625  0,0007656834781169892  0,02767098621511328  -0,44585185834046137  -0,8281299497397283  -0,51207275390625  0,046340467184782026  0,21526836085403267  -0,11761344031928707  -1,1348393880648517  0,2997412109375  0,007498621487617493  0,08659458116774682  -0,23487495708031972  -0,7580766641975103  -48,9625  355,66515625000005  18,859086834998138  0,9574833065143206  -0,018595047497648398  -27,765  280,652821875  16,752695958412186  0,33809336285895664  -0,7347388804948847  -74,8025  420,19716562500014  20,498711316202296  0,5039640210615389  -0,8701665473606837
61  0,78210205078125  0,0016342467010021214  0,04042581725830811  0,5624915114419674  -0,5154165332093514  0,08564453125  0,02523279309272767  0,1588483336164647  0,164268792963422  -1,204384224835653  -0,05012451171875  0,007343672150373457  0,08569522828240471  0,28589279741443324  -0,919681238549654  -72,39625  36,44150156250001  6,036679680296115  0,15003396807037706  -1,177800363415414  -42,57875  68,77989218749997  8,293364346723227  0,40140570031624145  -1,0580847057740406  -103,65375  48,95409531250002  6,996720325445345  0,3553689652739197  -1,0850316601747034
62  0,82023681640625  0,00345457279086113  0,05877561391309435  -0,1542027626967748  -1,232367976295454  0,9163916015625  0,0737920170068741  0,27164686084487355  -0,47661664793064473  -1,1171726859223303  -0,048330078125  0,008594961071014406  0,09270901288987175  0,18221542074178274  -0,9800621941280254  -51,074375  1706,297554296875  41,30735472403038  0,4754154743160044  -1,0864773333313438  -5,0675  303,472709375  17,420468115840055  0,3549341468898723  -1,2984981430928437  -47,34875  1553,4545453125  39,41388772136669  0,8158933210744548  -0,41266618807079425
63  0,81340576171875  0,0009069529712200167  0,030115659900125328  -1,0704353030433738  0,8974685358809351  0,564287109375  0,06383941159248356  0,25266462275610246  0,41926048454148146  -0,9561785608976185  -0,02168212890625  0,0002237197101116181  0,01495726278807784  0,8876239695515887  3,587814995247056  62,243125  327,3936636718752  18,094022871431196  -0,8131703774372127  -0,7568985588625159  6,0525  55,73083749999997  7,465308935335495  -0,15299487846558932  -1,1724197658907836  89,543125  202,94263242187517  14,24579349920092  -0,8418260427010807  0,7416850712932743
64  0,8028759765625  0,0014901199102401747  0,03860207132059334  -0,17330584224064957  -1,1046263862590304  -0,1949658203125  0,10588733813762669  0,325403346844538  0,09336782344197485  -1,4587586462497826  0,0556591796875  0,004461430287361144  0,06679393900168745  -0,3190548999807588  -0,46913674749948076  76,484375  126,961357421875  11,267713051985083  -0,02630679525913758  -1,3342585087422358  28,379375  94,30189492187503  9,710916276123228  -0,18947175032524688  -1,0072406295212943  103,62125  487,8419390624998  22,087144203416155  -0,9278651022665477  -0,33149091231065464
65  0,92819580078125  0,001340364092588425  0,03661098322345939  -0,09391856934699881  -1,1388833436667725  -0,8134619140625  0,008956132912635804  0,09463684754172555  0,9382083564989758  -0,3882494917312216  0,24942138671875  0,006151419466733931  0,07843098537398298  -0,7050033614680952  0,21695971839527406  4,553125  1185,140810546875  34,42587414354028  0,41056605865505025  -0,7613304453114593  5,26375  293,42668593749994  17,129701863648997  -0,3551043299366315  -0,9497527775610566  -0,445  2161,7709593749996  46,49484874020992  0,18754564672625557  -1,2513725379874552
66  0,84327880859375  0,0021680393874645245  0,046562209864486934  0,29227051528037856  -1,2288567146524918  -0,25652099609375  0,03907702242732044  0,19767908950448057  -0,09072043449973258  -1,0357683480894238  0,118359375  0,005578927993774413  0,07469222177559329  0,19370153465702206  -1,4372541409859783  -58,81  85,89569687500001  9,267993141721675  0,8260757667553845  -0,05426847566620552  -32,805  43,176193749999996  6,57085943769915  0,2055134162196236  -1,1557205461319844  -104,130625  206,84867929687505  14,382234850567384  0,46115199695614245  -0,9441572141641559
67  0,72680908203125  0,0006409841716289522  0,025317665208880385  0,7763190434505662  -0,2544166279992077  0,47408935546875  0,06936893779635431  0,26337983559178235  0,06509589876587686  -1,1558609103577553  -0,07422119140625  0,002310003632307052  0,0480624971501383  0,29181468248892634  -0,9004559077934138  -68,373125  56,190582421874986  7,49603778151331  0,5329770859564806  -0,991678218862039  -20,070625  220,81989492187486  14,860009923343755  0,7897822848287822  -0,15346344597329775  -108,154375  143,181363671875  11,965841536301365  0,715487072262229  -0,80040394466437
68  0,83586669921875  0,0010328010261058803  0,032137221816857166  -0,5238323283499535  -0,3577933500553865  1,10661376953125  0,04007988297343254  0,20019960782537147  -0,4677896542313209  -1,1955652381070545  0,078603515625  0,0016027962207794194  0,04003493750187977  -0,2828381860175737  0,7350431488355085  3,9175  1408,5856937500007  37,53112966258811  -0,24947857738646464  -1,2200871974403809  1,725  93,36062499999994  9,662330205493907  0,8585394078252515  -0,7447338825816612  24,374375  3182,674569921875  56,41519804026105  -0,33141340467276265  -1,3021780900568147
69  0,76009521484375  0,00032761260867118856  0,01810007206259656  -0,22284607506055468  -0,5461900714869761  0,284248046875  0,05025170812606811  0,22416892765516838  0,28995691442930127  -1,024571573492108  -0,02251953125  0,0005194295883178709  0,022790997966694457  0,5000704592260364  -0,8527838858488592  74,156875  126,17871054687497  11,232929740137921  0,11871447062776129  -0,8421254224200472  9,761875  138,316616796875  11,76080850948926  -0,023383367561512058  -1,5983929009606854  107,7425  57,411271875000004  7,577022626005547  -0,04560129324339234  -0,8704244059455135
70  0,878046875  0,005871257162094114  0,07662412911148886  0,1420428945151642  -1,054010758108289  -0,4686865234375  0,059474644207954404  0,24387423850819998  0,05953132689163462  -1,5334932644274297  0,10675048828125  0,009857260435819627  0,09928373701578536  0,3692812225160848  -0,9997258833953273  64,07125  285,5372671875001  16,897848004627694  -0,8003567960813789  0,36810056724671636  27,128125  62,24823242187499  7,88975490252232  -0,33434524060646664  -0,6972416964143209  71,905625  1060,6573042968755  32,5677340982893  -0,4997139311257254  -1,4390103743328684
71  0,94081787109375  0,0027219248950481416  0,052172070066733425  -0,21025034307221407  -1,1694836520328404  -0,62527099609375  0,051548647755384466  0,22704327286969872  0,3158762707533826  -1,3465023275465582  0,27789306640625  0,006811974495649338  0,08253468662113729  -0,1258404973490196  -0,9613830542699309  -34,38125  758,5317578125002  27,541455259526508  0,34501073746199334  -1,5927447141296425  -19,083125  388,9662542968749  19,722227417228382  0,9946172252762238  0,14538059704043382  -51,739375  1340,1047699218748  36,607441455554834  0,7212144024608367  -0,5027123831103673
72  0,79441650390625  0,0014634433448314666  0,03825497803987694  0,05145077318682693  -0,9475385996665064  0,06928466796875  0,027639478796720508  0,16625125201549765  0,41822202656544044  -0,7482628451463373  0,00216796875  0,002554579114913939  0,05054284434926411  0,4280236174145139  -0,6896542486614488  -75,22375  22,53579531250001  4,747188147998772  -0,3511217146375378  -0,4089021078061452  -31,63625  87,29635781250006  9,343251993417498  0,4489695109294484  -1,4966277641653747  -106,51  107,03654062499994  10,345846539795568  -0,7302844412548348  -1,2204003540515866
73  0,77637939453125  0,0030159132182598094  0,054917330764156856  0,32865329033759894  -1,6235776553105825  0,9403125  0,08852310237884527  0,29752832197766527  -0,332561358317  -1,4237720328755048  0,0068505859375  0,006408310914039611  0,0800519263605793  0,544252713447779  -1,3918738135561242  -49,40625  758,5805078125  27,54234027479328  0,5213860703689337  -0,8036091559162046  3,259375  146,70018554687493  12,1119852025535  -0,8594697879881203  -0,35946366981579025  -64,90125  2057,3978265624996  45,35854744766966  0,6778924736673058  -1,0875806455563146
74  0,79327880859375  0,0004662893474102027  0,021593733984890215  1,370784345431081  1,5094472944601227  0,73337158203125  0,08864300119280814  0,2977297452267881  0,1396179139960445  -1,4202182882373031  0,0401806640625  0,0015999498128891018  0,03999937265619427  -0,282676476931115  -0,759144452126093  58,289375  286,0042699218752  16,911660767703307  -0,7128845461350433  -0,2505273607542815  8,955  75,59344375000005  8,694449019345623  -0,11796199416054076  -1,5576233553556422  93,134375  779,9935449218749  27,928364522862324  -0,9514247091165045  -0,523057684058434
75  0,79843994140625  0,000397421234846115  0,019935426628144053  -0,6849502610161667  0,7345111722926037  -0,0132861328125  0,02199218890666962  0,14829763621403283  0,31298540468568653  -1,2399803116601114  0,06771240234375  0,00036180779337883004  0,01902124584192187  0,7658111209385081  -0,31543217344110497  64,7625  121,56773437500001  11,02577590807105  -1,1913853653469204  0,1643924573159561  22,94625  11,637032812500003  3,411309545101412  0,6011539631035  -0,6373436310275125  102,04625  147,72965781250005  12,154408986557103  -0,20278324929054015  -1,3218991704026282
76  0,93890380859375  0,0024390093982219695  0,049386328049592525  -0,6432010568028314  -0,6944108675150651  -0,7580224609375  0,024048513197898854  0,15507583047625073  1,3214518872310015  0,9909883913931332  0,30599853515625  0,013965544289350507  0,1181759040132569  -0,8181157386791247  -0,485162782828906  26,0025  961,6170249999992  31,009950419179958  -0,40187645997157634  -1,199628794573533  13,60625  297,8698828125001  17,25890734700491  -0,20906083341141563  -1,0960127617712843  31,86125  1863,2593421874997  43,165487859950105  0,123921947119809  -1,1209191870075552
77  0,885126953125  0,002090967273712158  0,0457270956185953  -0,17694294361804153  -1,1970450604383576  -0,3672216796875  0,04026295545101167  0,20065631176469798  -0,22142666622971038  -1,098096687902705  0,23211181640625  0,011591501063108444  0,10766383358913263  -0,06176115039748391  -1,4085595704454537  -55,261875  116,88825742187501  10,81148729000201  0,9501258476537308  0,13572953622758321  -45,02375  145,34959218749998  12,056101865341882  0,6799365630903411  -0,8067846579315749  -88,450625  391,0559605468749  19,775134905908352  0,3909149330051819  -0,9383137785885922
78  0,70082275390625  0,00399908215403557  0,06323829657759268  0,13063079364171915  -1,513324901010122  0,3689697265625  0,06997327744960788  0,26452462541247057  0,4121240171809991  -1,1500792308140781  -0,14740478515625  0,017752222841978076  0,13323746786087642  0,014361888156883409  -1,4743341717916456  -60,11625  110,9927359375  10,535309010062306  0,8119760003244246  -0,6152787456160653  -39,385  554,805446875  23,55430845673462  1,3303915230673564  0,32220264046270897  -120,643125  68,83721054687497  8,296819303014558  1,6538360347624756  3,8805349524079817
79  0,78662353515625  0,0029090076625347128  0,053935217275308284  -0,7024511166687248  -0,7866006039777123  1,0753759765625  0,008895285868644718  0,09431482316499734  -0,6918413233048483  -0,6310284800692889  -0,023349609375  0,011833606386184697  0,10878238086282492  -0,6904176091075959  -1,1460695014647446  -8,85  1178,5979687499994  34,33071465539276  -0,28549202279783276  -1,3166172737572872  20,0325  70,27667812499998  8,383118639563678  0,006274126278825639  -1,1528697861386799  0,901875  2425,9386917968736  49,2538190579865  0,3116380685846602  -0,9467503212453092
80  0,76269287109375  0,00031133829951286333  0,01764478108429978  -0,13893089795303923  -0,8245052914667972  0,42286376953125  0,06177876397967344  0,248553342322475  -0,020025391533091633  -1,280853608266423  0,01863037109375  0,0005529698073863986  0,02351531006358195  1,0113794739240212  0,007114575912333443  64,526875  139,72548867187504  11,820553653356303  -0,7633670409088473  -0,40172474509784095  22,676875  100,19820742187505  10,00990546518173  -0,10595405125634125  -1,3119178214532432  122,16125  189,95813906249998  13,782530212646007  -0,11290962914182917  -0,9761300569466629
81  0,81877197265625  0,002030887240171433  0,045065366304640565  1,103707974363771  -0,21502388989825683  -0,4328076171875  0,0973438436746597  0,3119997494785207  -0,7619455907150413  -0,3153735099704331  0,20094482421875  0,010548416680097579  0,1027054851509771  1,6443628714169474  1,5342292565287883  70,9875  203,63382812499995  14,270032520110105  -0,7802571385189144  -0,07008559897401279  33,436875  48,961366796875  6,997239941353662  0,017202440374987117  -0,8661953333199972  108,88125  258,3683203125001  16,07383962569305  -0,23048403554752175  -1,4921097812751776
82  0,90224365234375  0,0004741789042949674  0,021775649342670986  0,09464033367418384  -1,3212090576962967  -0,7632080078125  0,053252586722373936  0,23076521991490384  0,015866211161829204  -1,3332825727337019  0,4110546875  0,0057420085430145255  0,07577604201206689  -0,26418963837423454  -1,1098024891689995  -21,8775  1107,5542125000002  33,279937086779476  0,34960013699179343  -1,5022840415919463  -20,5625  480,412265625  21,91830891344038  0,8218525357313339  0,014328808821121974  -40,8425  1692,6901937500008  41,14231633914164  0,9848787803300201  0,2541551247632028
83  0,80374755859375  0,0017540650069713599  0,04188155927101282  -0,4552360844995287  -0,7235517693212006  -0,10848876953125  0,0222490735709667  0,14916123347226215  -0,06442610715361034  -1,1465658186937706  0,0681591796875  0,011659434294700623  0,1079788604065658  0,03152918505597112  -1,1404746861010204  -73,684375  34,18581054687498  5,846863308379544  0,9140344170053735  0,6054981719365307  -53,83625  6,394826562499999  2,528799431054191  0,12326033809015184  -0,6877214074086466  -104,1025  93,21582187500002  9,654834119496824  -0,6106409920517645  -0,2662854055489725
84  0,72266357421875  0,0024491613566875467  0,04948900238121139  0,8595032270401607  0,026787099806591552  0,8237646484375  0,16460583093166353  0,4057164415348034  -0,1642559992074441  -1,3975534499579756  -0,17014892578125  0,003189713066816331  0,05647754480159642  0,0759447089960709  -0,8413668804862007  -55,8475  341,2090093749999  18,471843691819174  1,3297058999153932  1,07279150722439  -14,604375  466,5703949218749  21,600240621851295  0,4023772300337714  -1,3492999553252112  -92,44875  1753,6410453124997  41,87649752919291  0,9476950057816245  -0,4180950907562986
85  0,78018310546875  0,0009028478324413294  0,03004742638632017  0,765827366461046  -0,7035324632869213  0,7904931640625  0,09287945153713227  0,30476130255846506  0,09713208604924492  -1,1382802426462733  -0,0610498046875  0,0010994539499282836  0,033158014867122  -0,7343438223006004  -1,0021994109866996  49,428125  544,3297949218753  23,33087642849868  -0,15984413878485837  -1,0823375669163064  12,709375  68,339091796875  8,266746143246143  -0,18598982137746303  -1,4853052108620861  95,32875  1368,8074703124994  36,99739815598523  -0,6466357799644887  -0,7523548134677491
86  0,74224853515625  0,0007952480018138886  0,028200141875775884  1,0034934789396275  0,0643892062084146  -0,12427978515625  0,05390322849154477  0,2321706882695246  -0,12186787605169712  -0,9869658838137028  0,05394287109375  0,0021474222838878633  0,04634028791330351  0,3301372893042693  0,6284771863653051  83,48625  73,0190296875  8,545117300979548  -0,12510759104471805  -1,0075529839814665  35,101875  15,096691796875012  3,885446151586071  0,44036341606644086  2,4970662349256996  116,323125  372,38828554687507  19,29736473062773  -0,2461531399059172  -1,2335647009082014
87  0,8925146484375  0,002411658310890198  0,04910863784396995  -0,533686494921575  -1,103941187606498  -0,94375244140625  0,024353608959913252  0,15605642876829282  0,5829537745883008  -0,9540999696607448  0,41611572265625  0,009168990963697436  0,09575484825165478  -0,3099088030638697  -0,7564557473062816  17,66375  1527,2577171875007  39,08014479486355  -0,20434591771288096  -1,3384245662543597  8,581875  879,8533355468749  29,66232181652129  -0,08478306274664273  -1,5843935442866506  20,603125  2913,3502636718727  53,97545982825781  -0,08010187340472236  -1,351058395513752
88  0,82907958984375  0,00014929782748222353  0,012218749014617803  -0,4970280472602523  -0,3126989019181816  -0,2941162109375  0,058697165846824675  0,2422749798200893  -0,2965247301540041  -1,2264555825898185  0,16123779296875  0,005801120108366011  0,07616508457532238  -0,049961782963736046  -1,211111379743151  -62,936875  114,46714804687504  10,69893209843277  0,712290679389465  -0,6680261259389151  -45,236875  46,007210546874994  6,78286153086402  -0,506781551741912  -1,1811680678656509  -106,6025  183,37988437500007  13,541782909757492  0,002463768317303573  -1,0546929433666654
89  0,7054736328125  0,0016244837999343869  0,04030488555912778  0,042712574876480655  -1,1133478900226947  0,47118896484375  0,08765688239932062  0,2960690500530588  0,37131028989272113  -0,9579388264719508  -0,12474609375  0,0062959014415740954  0,07934671664016159  0,22349024828863864  -0,7418327520789991  -83,46875  193,8816796875  13,924140177673449  -0,596249335539137  -0,6171756644738187  -43,744375  169,11117929687498  13,004275423754873  0,4494291650553084  -0,45137711625416665  -110,2825  303,26777187500005  17,414585033097975  1,2208699468503839  0,35199639486829737
90  0,7427734375  0,0005348062515258791  0,023125878394687608  -0,3903290470384095  -0,7290723119642379  1,0932861328125  0,04151622951030731  0,20375531774731012  -0,7666010434839534  -0,819105287937067  -0,147880859375  0,001219558811187744  0,03492218222258947  -1,109360912553314  0,038661569099865734  5,55  1574,0348437499983  39,67410797673967  -0,5644683623957241  -0,3308956756198218  4,3425  56,05683437500002  7,487111216951437  -0,45070256475151377  -0,04835767169227401  28,90125  3522,8489203125  59,35359231177587  -0,252694814640611  -1,5117375571006433
91  0,78748046875  0,00044159231185913057  0,0210140979311302  -0,6844398549395053  0,1502812742425541  0,29475341796875  0,03659229003787043  0,19129111332696672  0,21885026108205338  -1,1738088902837251  -0,0301953125  0,002287149286270142  0,04782414961366425  -0,5500367267883827  -0,8256019736571121  79,64  105,2863375  10,260913092897727  0,6920877650372907  -0,24251726605274326  30,20875  18,189548437499997  4,264920683611829  -0,6649053652133379  0,03513649113115447  106,821875  56,49666992187496  7,516426672420543  0,3917815780209622  -0,9783205550127794
92  0,81236328125  0,004487511301040648  0,06698888938503644  0,7923908293952088  -0,7140159635960797  -0,40779541015625  0,13213948971629141  0,3635099582078755  -0,3424631298294321  -1,4588097031824852  0,15521484375  0,017857149982452393  0,1336306476166766  0,586402782220301  -0,9994768230359945  74,36375  233,98471718750002  15,296558998268207  -0,190561078397749  -0,775184730128915  39,40625  46,3521484375  6,808241214697082  -0,14893628680336043  -0,9707582895211972  97,6175  448,1276781250001  21,16902638585441  -1,5416650825400404  1,5415102434062327
93  0,92278076171875  0,002732444161176681  0,052272786047585805  0,43764088641642857  -1,5382457354910042  -0,812626953125  0,04064477381706237  0,20160549054294719  0,22939536107652236  -1,378837253379679  0,35029296875  0,011396286487579343  0,10675339098866764  0,28488823069701846  -1,5802274081747936  -24,6125  1334,300859375  36,528083160426036  0,5888183636430312  -0,7314406798399506  -18,994375  403,8861011718747  20,096917703266705  1,0504330946872407  -0,4645532446660603  -35,775625  1250,1395386718746  35,35731237908043  0,34119636190766117  -1,2821268027322115
94  0,7934326171875  0,003484825491905212  0,059032410520875836  -0,5119012032521775  -0,9899788765867976  -0,180556640625  0,026729534053802483  0,16349169414316583  0,43226891823319374  -0,5137135620970228  0,08289306640625  0,006619628018140794  0,08136109646594492  -0,15081351093727915  -1,0426128732779019  -89,1125  191,1885156250002  13,827093534976909  -0,3786305688334073  -0,9861613687312891  -48,0  9,861015625  3,1402254099029263  1,1565523997056095  0,20832918135716216  -106,40125  154,2672015624999  12,420434837899192  -0,3341959196825444  -0,5474229835182594
95  0,7179736328125  0,00240026638507843  0,04899251356154764  -0,16207965870077334  -1,6187145532319303  0,90634765625  0,14924604296684277  0,3863237540804898  -0,449747400507904  -1,2693887825168064  -0,14190185546875  0,0009572790324687963  0,0309399261871905  0,38508397384769016  -1,0594618794385997  -57,148125  1368,9389574218749  36,9991750911  0,6279865116367322  -0,9074241118159252  -20,7325  173,0194593750002  13,153686151607852  -0,18938180026399595  -1,3649866514763829  -84,91375  3131,0334203125003  55,955637967165565  0,44699720409785915  -1,3476638301976396
96  0,7393017578125  0,00014655396938323973  0,012105947686292045  0,13470629671226103  -0,2862909939090126  0,75995849609375  0,0822619620501995  0,28681346211466346  0,022944549466641474  -1,22128251436509  -0,14897216796875  0,0034514042079448705  0,05874865281812742  0,7880140302610736  -0,4352844169340573  68,893125  481,66197617187487  21,946798768200225  -0,7158988201695654  -0,7637167808825271  20,78125  201,6141015625  14,19908805390332  0,08694639542343327  -1,3538040238590803  88,8725  910,587103125  30,175935828487574  -0,41166983168452875  -1,1013901016678054
97  0,7159423828125  0,001184893250465393  0,03442227840317071  -0,2052741514013093  -0,7303274376413156  -0,1359375  0,09804139733314515  0,3131156293338695  -0,5064148746146561  -1,0232761133647077  0,0905517578125  0,006113004088401792  0,07818570258302851  0,6180829896421112  -1,1301744349193565  94,908125  114,779098046875  10,713500737241539  0,9033618421617854  0,03327433384533851  41,2575  54,63783437500003  7,3917409569735355  0,5443028477888116  -0,6470748313024473  132,300625  182,58903867187496  13,512551153349058  -0,46378391803704433  0,18112632798015538
98  0,85978759765625  0,001639258497953414  0,04048775738360195  1,4271230232177143  2,7029527858079305  -1,06512451171875  0,027243482321500777  0,16505599753265793  0,02334520286459097  -1,0713735071715393  0,42982177734375  0,010532186478376384  0,10262644141923846  0,46627234316597416  -0,42235606020006466  12,6025  2671,552931249999  51,68706735006349  -0,03984488207651981  -1,1441966673038417  3,03625  841,2289203124997  29,00394663338939  0,11901745863853112  -1,6539457477121369  6,153125  3589,2885449218775  59,910671377659234  0,15964668548850336  -1,5005035304550904
99  0,79293212890625  0,001198651045560837  0,03462154019625408  -0,6856216986379124  -0,910352073574058  -0,32371826171875  0,06116676732897761  0,24731916086097658  0,045818062592069324  -1,1070218504363973  0,18044189453125  0,006457070225477215  0,08035589726633145  -0,5733564975456376  -0,7792625066080601  -91,41375  52,18256093749997  7,2237497836995965  1,296767678920872  0,8693833648590776  -45,27375  67,7638890625  8,231882473802695  -0,2320411980559436  -1,4404078627809485  -114,631875  250,79444492187488  15,836490928292003  0,391301885650993  -1,1594918397758558
100  0,71107666015625  0,00023328811526298493  0,015273772136017511  0,3147632505876186  -0,5812986804645375  0,569736328125  0,09482678356170657  0,3079395777773727  0,3338259962046398  -1,0635619645675403  -0,15969482421875  0,006548843258619307  0,08092492359353394  0,42791237276164  -1,1522022087648616  -77,070625  279,415910546875  16,715738408663704  0,5648404146748899  -0,7319418678601268  -34,12  291,74685  17,08059864290476  0,1917551004077694  -1,5612786405655894  -109,00375  350,09076718750003  18,710712631738538  0,9288547149563972  -0,3947692324508436
101  0,74648681640625  0,00025950776934623724  0,016109244840967474  -0,5987360214528954  -0,6873942978968346  0,9771435546875  0,05715460274219513  0,2390702882881834  -0,2984743328411491  -1,4140124886033105  -0,19401123046875  0,0010804618060588835  0,03287037885481218  -1,146184299715859  0,32698657958730504  34,454375  1282,2567855468747  35,808613287125134  -0,4392244288972398  -1,2824773060261314  13,500625  78,30808554687505  8,849185586644403  0,3100323078835794  -0,665263058109443  43,479375  2270,6093011718754  47,650910811566604  -0,5822530939217548  -0,7529119860753228
102  0,75568115234375  0,0007061336696147918  0,026573175753281577  0,21269203509082613  -1,5482345647182385  0,1005908203125  0,0562942635774612  0,23726412197688296  0,38025215275916086  -1,3284576657657754  0,00479248046875  0,005643189734220506  0,07512116701849424  -0,6425733793842147  -0,7289775426644458  83,5  240,838203125  15,518962694877516  0,25401987478502885  -0,3106228391069039  46,2825  41,24730312500001  6,4224063344668565  -0,23931600430489017  -0,6353355519212425  119,3475  377,24322812500026  19,422750271910523  0,11254888311887197  -1,0373891755422247
103  0,8748046875  0,005043175220489501  0,0710153168020076  -0,6744549520012552  -0,9302341549377573  -0,7605224609375  0,11635188877582561  0,34110392664967315  0,699294723217808  -1,2737989587663647  0,39247802734375  0,03139294874072075  0,17718055407047567  -0,5234333029087831  -1,5128428867072865  63,6825  1849,3952093750004  43,004595212314236  -0,18209190766359676  -0,8322945281083634  39,336875  941,144210546875  30,67807377504127  -0,23000062191066678  -1,4766908096083171  64,355  2494,6132718749996  49,946103670606774  -0,30431527946700515  -1,5456771935463332
104  0,857333984375  0,0005814129352569582  0,024112505785524617  0,9366328471209497  1,1838967158150808  -0,57579345703125  0,04519397303462032  0,2125887415518995  -0,06180275320998135  -1,1255262120220393  0,320498046875  0,008664264822006227  0,09308203275609223  0,4174497229263116  -0,48860079551445956  -57,263125  428,64236679687497  20,703680030295942  0,969537198437917  -0,7615389801792776  -36,658125  78,73933242187495  8,87351860435729  0,41632912594932586  -0,11291327202085322  -78,77875  592,5372203124999  24,34208742718052  0,1887406157064931  -0,886135896686643
105  0,78384521484375  0,000959462708234787  0,03097519504756648  -0,468905140528746  -1,1430257409607134  0,12764892578125  0,034258022755384435  0,18508922917172796  -0,21200780155466428  -1,0779815154812977  0,02372802734375  0,008730136984586719  0,09343520206317701  -0,3312039417879374  -1,1905091820367204  -70,006875  13,136476171875008  3,624427702669072  -0,6601442938524938  -0,635928978507609  -48,88625  24,802373437499995  4,980198132353771  1,7669908088183144  2,505122172340317  -108,958125  93,94195742187503  9,692365935202561  0,21499226014501038  -1,5372222571385692
106  0,7705615234375  0,0008058709859848028  0,0283878668797922  -0,08914514942963404  -1,6300167497670963  0,96963623046875  0,0654999240100384  0,25592952938267677  -0,5835835358163565  -1,130833172803628  -0,17564208984375  0,0009739962279796596  0,031208912636932092  -0,2602657483396254  -1,5036328317633543  -29,399375  826,4716324218748  28,748419650858633  0,45557554292282054  -1,1355384096293089  -12,4325  156,23895937500004  12,49955836719842  0,02265263063790768  -1,5971448955831258  -49,90375  2843,9204234374997  53,32842041011059  0,6112295558450473  -1,1525977431467442
107  0,77015380859375  0,0001702241599559785  0,013046998120486509  0,09957176291690292  -0,9859141376629577  0,52636474609375  0,07829470335841177  0,27981190710620546  0,08432474473707854  -1,2124327785188145  -0,09127685546875  0,0017851575076580045  0,04225112433602216  0,906108283339008  -0,23074603866195842  62,896875  212,12393554687478  14,564475120884884  -1,0016701032937971  -0,4731647875496243  22,03375  145,97307968750005  12,081931951782382  0,11533058538095733  -1,1427345673121787  102,78875  357,5166234375001  18,908109991151946  -0,7024407904714831  -0,5792423971622815
108  0,8018896484375  0,0018357973337173462  0,042846205592996754  0,24310833912926186  -1,4057174113452056  -0,23558837890625  0,059729555195569974  0,24439630765535303  -0,5148874549964599  -1,0499648233028462  0,1319384765625  0,008983581280708319  0,09478175605414957  0,5613314081875329  -0,8076676313019626  77,775  175,25195312499997  13,238276063181338  -0,5821795861276198  -0,9050559036531323  42,871875  20,874248046875  4,568834429794431  -0,3263418148636464  -0,48568160500672475  107,38125  43,5616015625  6,6001213293772105  -0,31694009952409063  -0,7822212114471823
109  0,88777587890625  0,005067906445264813  0,0711892298403685  -0,2685008603284408  -1,3317631096113527  -0,9485009765625  0,022730747246742237  0,15076719552589096  0,17626387806317192  -1,0105304899902956  0,38114501953125  0,015483605927228925  0,1244331383805332  -0,06705714410913567  -0,9310984421973951  -12,98875  2048,1902640624994  45,25693608788049  0,04992768571812601  -1,3545313676029778  -15,114375  744,9968011718753  27,29462952985212  0,8477544385381938  -0,9936044768399155  -12,000625  3783,161601171872  61,507410945120036  0,6502625678509592  -0,9553395573954981
110  0,76584228515625  0,0003686450660228729  0,019200131927225732  -0,5236801971157493  -0,17599672084614815  -0,1154150390625  0,098907831454277  0,3144961549117525  0,11129121595647311  -1,2909311405085842  0,10881103515625  0,004014329546689986  0,06335873694045666  -0,9006046056966404  -0,2768299324121295  -83,6  43,61632812500004  6,6042659035656675  0,45297558841486  -0,7876117680560308  -39,6  26,894531250000004  5,18599375722725  -0,052132458757342265  -1,1748573465033219  -131,2225  169,09252499999988  13,003558166901852  0,28529700375156425  -0,7292815462083455
111  0,7580029296875  0,004311636185646056  0,06566305038334767  0,5956417594814903  -0,9247280695924012  0,86472412109375  0,03596012842059135  0,18963155966397405  -0,9732328121752578  -0,37058433396296975  -0,1933447265625  0,008402156615257266  0,09166327844484544  0,4437150892684774  -1,1548621437142113  -46,054375  899,1120824218749  29,9851977219073  0,5719705577320457  -1,223808824418127  -5,85  848,4131250000007  29,127532078773868  -0,12685190527005505  -1,552434370407122  -53,711875  2169,478507421875  46,57766103425412  -0,207897148527533  -1,344520526189902
112  0,81620849609375  0,0014602931678295154  0,038213782432906525  0,5813873651743294  -1,2216430969629222  0,6418994140625  0,09562918255329139  0,3092396846352217  -0,08888252313684473  -1,5022362610256055  -0,0005908203125  0,0015696885347366327  0,039619294980307675  0,6284505526081883  -1,1563121428876717  63,90125  485,4718109375005  22,033424857191413  -0,7560811579175971  -0,8075408955913526  26,14875  39,7633421875  6,305818121980684  0,003010217067776282  -1,4810902902289738  89,09375  1110,3444140625  33,32183089301216  -0,6934156826064072  -0,951417043574236
113  0,79001220703125  0,0008159242808818813  0,028564388333760647  0,38293085422279494  -0,6392239608050025  -0,25628173828125  0,09140106541514399  0,3023260911915212  -0,6428396590172096  -0,48817385080565856  0,216728515625  0,006068608856201176  0,07790127634513555  0,02351010772611988  -1,217846057673397  77,409375  234,65362304687494  15,31840798016801  -1,059070099183803  -0,12409740940860603  24,586875  267,9324917968752  16,36864355396852  -0,7566463227224399  -0,956831436163927  116,956875  85,50849179687502  9,247080176838255  0,006638708491931586  -0,9633439969428568
114  0,86681396484375  0,00038276368975639295  0,019564347414529136  -0,5416665167935016  -0,1701546067029529  -0,96907470703125  0,054254593914747254  0,232926155497289  0,2198444383817221  -1,4715828097502623  0,33222412109375  0,0014905110538005828  0,03860713734273215  0,08250914293548134  -1,2817965264573354  -11,33625  1630,2177953124992  40,375955658194634  -0,053494209147841636  -1,6430890382305243  -12,298125  162,44780117187506  12,745501213050629  0,49929878851378123  -1,2864334482466488  -20,34125  3745,261985937497  61,198545619463026  1,0214765118076983  -0,2844931849711303
115  0,8027587890625  0,0012784892320632936  0,03575596778250162  -0,5128383734235304  -0,120900998573366  -0,18915771484375  0,04567678844332698  0,21372128682779118  0,023811907288476705  -1,0643660985380654  0,15599365234375  0,004279824942350388  0,06542037100437743  -0,3184364311268846  -0,6312824841904776  -85,459375  110,24620117187501  10,499819101864327  -0,05005259677137183  -1,5170736437841357  -42,141875  52,01475429687494  7,2121255047922554  0,27949754016661127  -0,25684754849538516  -112,551875  92,19625429687505  9,60188805896398  0,2983168730312628  0,5238304111605561
116  0,6855712890625  0,0014930087327957153  0,038639471176450065  1,1956377574279062  0,19676642829845914  0,84083740234375  0,12710259229540827  0,3565145050280679  -0,28918122247439954  -1,2545424814222235  -0,17510986328125  0,005401684492826461  0,07349615291174404  0,6645962804871963  -0,58516940267707  -73,52875  990,7326109374999  31,475905244130786  0,7751872999140083  -0,6594980179889767  -18,2625  716,1979687499995  26,76187528462831  0,12209366776214782  -1,5221220352591842  -96,703125  2211,242998046875  47,023855627190706  0,5012549520161845  -0,9843760324238171
117  0,79009521484375  0,00022575480341911324  0,015025139048245552  -0,30568133755251026  -1,2477201793406592  0,78715087890625  0,09374334341883651  0,3061753475034143  0,1131424222311515  -1,4591480333790856  -0,00585693359375  0,0004702836215496058  0,021686023645417475  -2,0432997241760904  4,126733425166339  53,67625  714,4092484374992  26,728435203683347  -0,6264329321531656  -0,7162355641161118  19,203125  8,556513671875  2,9251519057777156  0,08162513472682872  -1,6102450821221341  84,47625  1126,5271703125006  33,56377765259001  -0,8253100394102543  -0,7365783129820342
118  0,75268310546875  0,0008691996276378632  0,029482191703431127  0,3914254135211451  0,8105048497647567  -0,0862548828125  0,07418584764003755  0,272370790724772  -0,3932216625149416  -0,6497588111839483  0,1039013671875  0,00566725037097931  0,07528114220028354  1,1435149280230996  0,40901248616061503  85,451875  66,04819179687499  8,127003863471149  0,08262187866678879  -0,9906103095171228  33,6  40,554765624999995  6,368262370929766  0,6277526243840691  -0,5493071375879497  131,799375  59,68603867187503  7,725673994667069  -0,08767508335186522  -1,3113328532844262
119  0,88095458984375  0,0015986298263072965  0,03998286916052044  -0,42078407538138085  -1,2923382943707147  -1,015546875  0,009926339244842533  0,09963101547631908  1,1570586525116413  0,2384638607995191  0,36257568359375  0,003946022862195969  0,0628173770719215  -0,7453493061784258  -0,8668065282157507  15,564375  2040,820816796875  45,175444843375644  0,02838743750835055  -1,4160893300727  -3,623125  459,99714492187485  21,44754403007195  0,26251046756672963  -1,3389708123025892  4,961875  3509,716632421875  59,2428614469446  0,3214917478848785  -0,8711068702380991
120  0,7837158203125  0,0003416091203689575  0,01848267081265469  0,34311352541436424  -1,276343651858353  -0,23870361328125  0,08434721452593807  0,2904259191703421  -0,15706165431495103  -1,088320014966286  0,16495849609375  0,002811118429899217  0,053019981421151184  0,009380231390401155  -1,2044431274113154  -82,09375  94,9997265625  9,746780317751089  0,17340524377519612  0,19109483133085936  -34,323125  36,432348046875  6,035921474545125  0,28845937996184673  -0,8674410843370066  -120,25625  189,7301953125001  13,77425843058348  0,6587243571257794  -0,6823823573454542
121  0,7553955078125  0,0015827363729476926  0,03978361940482154  0,6510959487214225  -0,7686054846557533  0,71001708984375  0,10806753975749019  0,32873627691128066  0,2683865185801263  -1,3939651761509482  -0,073046875  0,005848556756973267  0,07647585734709528  0,053719660684825275  -1,2849493378629855  -65,945625  597,7168480468749  24,448248363571466  0,9660530760639391  -0,5466394728990953  -19,20625  506,1170703125  22,497045813006206  0,33430787905427617  -1,7019148923004193  -87,68375  1022,4700640625001  31,976085815222916  1,2318743379304962  0,47376875260774076
122  0,83394287109375  0,0006164229571819305  0,024827866545112782  -0,8213338311716567  -0,1734763981513452  0,77471923828125  0,06237624809145927  0,2497523735451963  0,11978232326452555  -1,2846687807612474  0,02034912109375  0,0003325717151165007  0,018236548881751195  -0,56976603584613  0,7827891772727216  48,368125  541,6856949218753  23,27414219518896  -0,5508693334055772  -0,7290148358542701  8,186875  4,854179296875  2,2032202107086345  0,2322286551414378  -0,7880846207470631  72,088125  913,7769605468753  30,228743945901478  -0,6685979881576523  -0,7563452572744529
123  0,75972412109375  0,0008761311233043674  0,029599512213960004  -0,07178815502312552  -0,9740692591085116  -0,0163427734375  0,06276497104167938  0,25052938159361543  -0,128318304821868  -1,2982341309669279  0,0706103515625  0,006604791378974916  0,08126986759540658  0,6674714679461169  -1,2475768396680278  89,344375  50,868944921875  7,132246835456201  -0,008639645252862933  -0,7691826500654835  33,868125  167,40499179687507  12,938508097801503  0,21499506558328457  -1,1607832444252475  136,23625  287,14387343749985  16,945320104309033  -0,011138421870934325  -1,2252544559813277
124  0,80201904296875  0,0004066947162151337  0,0201666734047818  0,08858469971800519  -1,4665397159152036  -0,8947021484375  0,048011273741722135  0,21911475016922558  0,6954275180169613  -0,8006281162679802  0,29798583984375  0,008416969031095504  0,09174404084786926  -0,1417617398057134  -1,4427909218587456  36,539375  987,4724730468745  31,424074736527636  -0,25835233427537035  -1,0882172090962599  7,999375  43,03519492187501  6,560121563040963  -1,037869777046483  1,065829968713408  46,986875  1916,1313511718756  43,77363762782202  -0,4157217543397877  -1,0064301446865638
125  0,82406005859375  3,278180956840515e-05  0,005725540111500849  -0,6672541391449105  -0,950759396464953  -0,49584716796875  0,07302889286875729  0,27023858508502685  -0,29006250011558515  -1,12831625389523  0,251015625  0,007444761657714844  0,08628303227005205  -0,3049098778397425  -1,1295598340816904  -58,34125  220,77987656250008  14,858663350466625  0,901022249345806  -0,5856379537542158  -26,169375  62,04900742187498  7,877119233696732  0,0154267949376023  -1,37516261871701  -95,1925  315,55161562499984  17,76377256173361  1,105481657878276  0,13958763612776925
126  0,813623046875  0,0003297567367553712  0,01815920528975239  -1,4588613803138668  2,7102057270125144  0,13857177734375  0,019100668543577216  0,13820516829546287  0,3204946170937837  -0,9227565487565421  -0,017685546875  0,004257535123825075  0,06524979022054458  0,1084617771200315  -0,7900927916702405  -55,4475  275,22669687499985  16,589957711670028  0,5543420734001682  -1,3050662610655062  -29,1075  41,137115624999986  6,41382223210154  0,409798251566992  -1,0583921839760995  -113,525  47,714375  6,907559265037109  -0,42033120700536575  -1,2991894983391288
127  0,810400390625  0,0005159163475036624  0,02271379201066309  -1,0195446387113414  0,8387828316696475  0,92351318359375  0,049735192412138  0,22301388389994467  -0,656902510698513  -0,8990785731254505  -0,05802734375  0,001632948970794679  0,04040976331030261  -1,1354888726797119  -0,2240346038268961  -31,105  598,9681156249999  24,473825112250022  0,3652206599668259  -0,8884916354805199  4,608125  23,96694179687498  4,895604334183369  -1,9462680193140909  3,810569729777889  -50,458125  1851,6293011718756  43,03056240826833  0,39972123522700714  -0,8394144596168371
128  0,81774169921875  0,00020160848498344448  0,014198890272955999  0,7677290606926446  -0,6039680437844477  0,56742431640625  0,08031668431162833  0,2834019836056698  0,20284852755201083  -1,1900860012087573  0,04546630859375  0,00372624379992485  0,06104296683422956  -0,6318044248441366  -1,1852784192248418  49,420625  362,79280117187506  19,04712054804807  -0,030844937338953864  -1,6336937267776614  16,97375  17,139467187499992  4,139983959811921  -1,3934648265361016  1,3575312174679484  108,013125  528,3279136718749  22,985384784072572  -1,2988288399315584  0,5552582389461156
129  0,790234375  0,0005167293548583982  0,022731681742853917  -0,340053197007089  -0,6408514192010375  -0,20364990234375  0,0725713567435741  0,26939071391489  -0,6325130551490206  -0,7541890194757532  0,13423095703125  0,00346404396891594  0,05885612940820981  1,7236671215870867  2,379922116045573  75,765625  26,737529296875  5,170834487476369  -0,10858117109195993  -0,7289827796260373  11,786875  14,556882421875  3,815348270063298  -1,9312221598436277  4,692282442767886  129,619375  31,535866796875002  5,615680439347933  -0,45689743699336743  -0,68733636044084
130  0,7893603515625  0,0001814157724380494  0,013469067244544048  0,07186242053152912  -1,1143602168438786  -0,96268310546875  0,02137081548571586  0,14618760373477588  0,7711624552162171  -0,6330207541128141  0,27606201171875  0,004679556339979172  0,06840728279926905  0,5531227866002253  -0,859754265067906  -0,994375  1503,457038671875  38,77443795430019  0,3645986433583614  -1,08964620887347  -17,490625  48,25034179687502  6,94624659775875  -0,4513983163920657  -1,1481337669279965  4,331875  3870,678569921874  62,21477774549929  0,3839375879246419  -1,0195220515984982
131  0,85263916015625  0,0005360759437084199  0,02315331388178418  -0,5597887369189594  -1,0440578119867625  -0,20869140625  0,039584846496582074  0,1989594091682574  -0,3551993874945681  -1,09504864112936  0,08856201171875  0,00540135309100151  0,07349389832497329  -0,16196880181669193  -1,4091959843762016  -64,29625  33,2335640625  5,764855944644237  0,6464580452321265  -0,9004284509229876  -24,538125  80,215382421875  8,95630406037418  0,2652881834034403  -1,467004777161489  -98,088125  37,14555429687502  6,094715276112168  0,6762545654104702  -1,034362317271821
132  0,84805419921875  7,095057368278509e-05  0,008423216350230184  -0,37993041948551215  -0,14145818162343504  0,31711669921875  0,03725532066226006  0,19301637407810784  0,3430657754380445  -1,01592096268754  -0,1102197265625  0,001282591128349304  0,03581328145184834  0,4036178283288579  -0,9184100026762967  -60,303125  153,5008886718749  12,389547557190088  0,011145095884128112  -0,9454160524638295  -20,47  86,68902187500002  9,31069395238615  0,20620990386340002  -0,8676538713521418  -88,469375  76,75089804687501  8,760758988060052  0,5414259000550959  -0,7157912195206149
133  0,88511962890625  0,0009891800582408905  0,03145123301622514  -0,2374650110246895  -1,261586339524061  0,7967138671875  0,02366297509670258  0,1538277448859684  -0,45333795419134193  -1,062321484309486  -0,1090380859375  0,0012797424554824826  0,03577348816487543  0,3644736605158544  -1,2277919545327303  9,174375  797,086038671875  28,232712208923093  -0,08746686946758464  -1,331783782854638  0,399375  24,357491796874992  4,935330971360988  -0,11111192201574976  -1,3197662991266075  21,4125  2527,2001562499972  50,27126571163687  -0,464095871591082  -1,213508818522872
134  0,8090771484375  0,0003208672761917114  0,01791276852392481  -0,6428727717031257  -0,5260169974838882  0,1268505859375  0,04422279379367829  0,2102921629392743  0,20552753259488754  -1,4498556151794908  -0,07004150390625  0,0021670316398143758  0,04655138708797382  -0,006414552629589633  -1,661070638466102  64,841875  42,65011367187499  6,530705449786798  0,08102524678435416  -1,3766411297927312  23,44125  67,00037656249997  8,185375774055823  -0,6765054480215884  -0,9436000752565787  108,488125  173,34177304687495  13,165932289316808  -0,010098311959838737  -1,0244381500244166
135  0,85900390625  0,0023824888229370105  0,04881074495371906  0,015760767178950058  -1,4835936801563947  -0,65762939453125  0,10601083084940913  0,32559304484188406  0,049869182155564226  -1,4905715912301136  0,252041015625  0,02877819242477417  0,1696413641326141  0,0028515758082655177  -1,5474711791614018  65,790625  1006,9392480468748  31,732306062542552  -1,0499488488725497  -0,17089584175486117  20,775  249,22554687499985  15,78687894661259  -0,977561458206825  -0,030409145071172095  64,538125  1063,973976171875  32,618613952341306  -0,7643176851176846  -0,7648615755966466
136  0,8387646484375  0,0002906622648239137  0,017048820041982778  1,3253313112336114  0,9666895325833655  -0,61884033203125  0,0528420148551464  0,2298739107753344  -0,10953118270027548  -1,3280183310846763  0,20548583984375  0,005633070534467699  0,0750537842781275  0,5368651218576495  -0,8570400332358825  -54,109375  440,092919921875  20,978391738211844  0,9257120456022282  -0,49071277517855894  -23,750625  6,245194921875003  2,499038799593756  -0,980992752111982  0,8059196576627641  -72,4875  898,4282031249993  29,973791937707837  0,3345948375928445  -0,8774440452893422
137  0,76721435546875  0,0016262072265148162  0,04032625976351906  0,11995522138166985  -1,1337318373238559  0,10473388671875  0,04332332550883291  0,20814256054164634  0,11014489770819795  -1,1239732511886424  -0,047119140625  0,006784597635269165  0,08236866901479692  0,15973504422373097  -1,219798521999222  -82,5475  17,03727500000001  4,1276234082096215  0,0743332644390865  -0,7837242800224602  -30,308125  58,12955117187499  7,624273812755874  1,0168769644321194  -0,16942331918797304  -118,4125  8,452187499999997  2,9072646078401596  -0,6443278487903938  -0,5467570969841207
138  0,8514501953125  0,004254830384254456  0,06522906088741778  -1,029740740415486  -0,587879770035836  0,98533447265625  0,03830691010355949  0,19572151160145757  -1,0803352555137598  -0,018281182063590418  0,0126806640625  0,007907050633430479  0,08892159823929437  -0,6074106707107519  -1,1202980442834545  -35,125625  2551,1458980468733  50,508869498800635  -0,06298757540086096  -1,3850315574921022  11,70125  70,5402796875  8,398826089847319  -0,6566410667890915  -0,9991491253361819  -27,275625  3201,0673511718733  56,57797584901631  -0,00861581359974943  -1,293924173019029
139  0,8169189453125  0,0008141249418258668  0,02853287475572461  0,33895497170066385  -0,8202636609896512  0,4526806640625  0,03134528086185456  0,17704598516163692  -0,17126928323007337  -0,7613849998330502  0,009873046875  0,0005514863967895508  0,02348374750310416  0,3326859355042568  -1,0740714750564728  69,765  254,55829062500007  15,954882971209788  -0,35412715694563895  -1,2335634859645879  11,96125  125,97326406250014  11,223781183830168  -0,18414255005191904  -1,5066423821822148  97,800625  340,22825742187496  18,44527737449006  0,5707971033089706  -0,8232392291236095
140  0,81635986328125  0,0025702782809734355  0,050697911998162565  0,2848606364512755  -1,1365708152645424  -0,3603076171875  0,11420556709766393  0,33794314181184965  -0,5520609082588317  -0,9657841015243691  0,20119140625  0,011748361206054693  0,10838985748701165  0,36860826062732904  -1,1427440207898927  73,35125  203,05842031250003  14,249856852351185  -0,26018133684318273  -0,6137779891070303  29,83375  60,72001718750002  7,792304998362168  -1,0579165778511088  0,46340836583444256  113,841875  282,5479261718749  16,80916197113571  -0,3104599986223711  -0,15473917733634668
141  0,8222900390625  0,0011331087350845341  0,033661680514860425  0,8579891703389827  -0,4498161560738425  -0,82320068359375  0,07481996662020683  0,2735323867848318  0,14601493728957216  -1,4240467120349816  0,26647216796875  0,006527066773176196  0,08079026409893827  0,5855676224899717  -0,9999721325830939  -18,034375  810,5391699218738  28,469969615752557  0,3361100586337969  -1,401412507865469  -13,448125  41,253598046875034  6,422896390794034  1,0196256799681611  1,2502747747612597  -38,141875  2360,888426171876  48,5889743272265  0,8148834147014321  -0,49091092564626004
142  0,86694091796875  0,00016997634768486025  0,013037497753973355  -1,1106384295016105  1,1276629150564617  -0,10360595703125  0,011282118147611611  0,10621731566751069  -0,5809571083266826  -0,5657414146495232  0,1113720703125  0,0008264403104782103  0,028747874886297427  -0,8779470167657987  0,4870034108251269  -58,73  24,929053125000006  4,9929002718860716  0,6748442070230919  -0,10080471634121668  -16,755625  50,157194921875  7,0821744487039435  -0,9619558133479014  -0,5329265690988612  -93,850625  8,786241796875002  2,9641595430872143  -0,12030958226103115  -1,262314353746304
143  0,85556396484375  0,0003700171649456023  0,019235830238011623  0,703897434810825  0,020630930382070645  0,5517919921875  0,10326812746524813  0,3213535863581549  -0,23051340069174817  -1,197744854541202  0,07267333984375  0,0014041424453258523  0,037471888734434675  -0,19718690261071867  -0,7898108504941881  -56,000625  260,067538671875  16,126609645919846  0,40310218978754275  -0,3659831088416059  -15,13625  25,487451562499988  5,048509835832747  -0,04562241421678673  -0,6260964360490378  -96,0475  818,5779000000001  28,61080040823745  0,3492099757089032  -0,8508838068424285
144  0,8730712890625  0,0005007237195968628  0,02237685678545722  0,15312931895315168  -1,5535822453517372  0,772177734375  0,04366375055313109  0,20895872930588733  -0,27692287978259966  -1,2395177948130252  0,02817626953125  0,0005870546042919156  0,024229209733128226  -0,02237934451423462  -1,2491260342417716  33,628125  771,4768261718746  27,775471664255758  -0,3184553358321881  -1,2623207861334929  -6,2  22,37617187499999  4,730345851520794  0,22699581271960434  -1,3410259925264378  54,71625  1520,8803453125001  38,998465935373666  -0,5622997214010181  -0,7243239800346108
145  0,80640625  0,001430492305755615  0,03782184958136785  -0,49107089456328995  -0,9659270541989717  0,07205322265625  0,02665434677004813  0,16326159000220514  0,27314379391763216  -1,0890362075561697  0,0143310546875  0,0007858890295028685  0,028033712374619036  -0,33949774571615576  -0,19251421506829702  66,019375  84,757632421875  9,206390846682266  0,2226577449834361  -1,1060967756315425  7,86875  44,92191406250007  6,702381223304153  0,1735131683852616  -1,3416600902944822  106,649375  52,20131992187502  7,225048091319186  -1,5806162026613442  2,0336695905648057
146  0,83339111328125  0,0013033714950084687  0,03610223670367902  -0,4165779946480821  -1,438563976535472  -0,76048095703125  0,12595015079379077  0,35489456292509014  0,4006935648272345  -1,5407846483582075  0,239541015625  0,018832935953140242  0,1372331445137808  -0,4817063362677248  -1,1152123069554813  50,1775  575,3919312499999  23,98732855592719  -0,37969563740444856  -0,9207850867811107  17,8875  242,51734375000015  15,572968366692336  -0,7042678967596383  -1,0978921690678356  67,61625  2340,3341421874998  48,37700013629927  -0,7804988436177621  -1,0532747073065347
147  0,83143310546875  0,00013260886073112484  0,011515592070368107  0,33865206443321655  -0,6412766157515839  -0,53450927734375  0,08047133609652513  0,28367470119227256  -0,33273651900649365  -1,3033987486830647  0,22512451171875  0,0071077321708202315  0,08430736723928836  0,1550546239895622  -0,7035678913879946  -51,200625  243,96603867187505  15,619412238361438  0,22720683859480612  -0,6412065660868285  -27,5025  59,660384374999964  7,724013488789359  0,2594371953718985  -0,26842137628351326  -85,05375  657,2114859374998  25,63613633013953  1,0789818881785478  -0,2720861908979497
148  0,76995361328125  0,0008689926326274876  0,02947868098520501  -0,5975669948773573  0,032274115682970894  0,1393603515625  0,029500905728340136  0,17175827703007543  0,3899635270745586  -0,43741188353972715  -0,072578125  0,004367085790634157  0,06608392989701926  0,2983701806005393  -0,4273840384431584  -66,4725  54,203696875000006  7,362315999398559  0,3848391880372417  0,4085970186684542  -33,1975  45,50849375  6,745998350874391  0,4607963162799215  -1,158624628494919  -119,564375  117,23933242187502  10,827711319659157  -0,42628002599670844  -1,2720887736559785
