time,acc_x,acc_y,acc_z,gyro_x,gyro_y,gyro_z,temp
1,0.0,0.0,0.0,0.0,0.0,0.0,0.0
2,0.0,0.0,0.0,0.0,0.0,0.0,0.0
4,0.0,0.0,0.0,0.0,0.0,0.0,0.0
6,0.0,0.0,0.0,0.0,0.0,0.0,0.0
8,0.0,0.0,0.0,0.0,0.0,0.0,0.0
9,0.0,0.0,0.0,0.0,0.0,0.0,0.0
11,0.0,0.0,0.0,0.0,0.0,0.0,0.0
13,0.0,0.0,0.0,0.0,0.0,0.0,0.0
15,0.0,0.0,0.0,0.0,0.0,0.0,0.0
17,0.0,0.0,0.0,0.0,0.0,0.0,0.0
18,0.0,0.0,0.0,0.0,0.0,0.0,0.0
20,0.0,0.0,0.0,0.0,0.0,0.0,0.0
22,0.0,0.0,0.0,0.0,0.0,0.0,0.0
24,0.0,0.0,0.0,0.0,0.0,0.0,0.0
26,0.0,0.0,0.0,0.0,0.0,0.0,0.0
27,0.0,0.0,0.0,0.0,0.0,0.0,0.0
29,0.0,0.0,0.0,0.0,0.0,0.0,0.0
31,0.0,0.0,0.0,0.0,0.0,0.0,0.0
33,0.0,0.0,0.0,0.0,0.0,0.0,0.0
35,0.0,0.0,0.0,0.0,0.0,0.0,0.0
37,0.0,0.0,0.0,0.0,0.0,0.0,0.0
39,0.0,0.0,0.0,0.0,0.0,0.0,0.0
40,0.0,0.0,0.0,0.0,0.0,0.0,0.0
42,0.0,0.0,0.0,0.0,0.0,0.0,0.0
44,0.0,0.0,0.0,0.0,0.0,0.0,0.0
46,0.0,0.0,0.0,0.0,0.0,0.0,0.0
48,0.0,0.0,0.0,0.0,0.0,0.0,0.0
49,0.0,0.0,0.0,0.0,0.0,0.0,0.0
51,0.0,0.0,0.0,0.0,0.0,0.0,0.0
53,0.0,0.0,0.0,0.0,0.0,0.0,0.0
55,0.0,0.0,0.0,0.0,0.0,0.0,0.0
57,0.0,0.0,0.0,0.0,0.0,0.0,0.0
58,0.0,0.0,0.0,0.0,0.0,0.0,0.0
60,0.0,0.0,0.0,0.0,0.0,0.0,0.0
62,0.0,0.0,0.0,0.0,0.0,0.0,0.0
64,0.0,0.0,0.0,0.0,0.0,0.0,0.0
66,0.0,0.0,0.0,0.0,0.0,0.0,0.0
68,0.0,0.0,0.0,0.0,0.0,0.0,0.0
69,0.0,0.0,0.0,0.0,0.0,0.0,0.0
71,0.0,0.0,0.0,0.0,0.0,0.0,0.0
73,0.0,0.0,0.0,0.0,0.0,0.0,0.0
75,0.0,0.0,0.0,0.0,0.0,0.0,0.0
77,0.0,0.0,0.0,0.0,0.0,0.0,0.0
78,0.0,0.0,0.0,0.0,0.0,0.0,0.0
80,0.0,0.0,0.0,0.0,0.0,0.0,0.0
82,0.0,0.0,0.0,0.0,0.0,0.0,0.0
84,0.0,0.0,0.0,0.0,0.0,0.0,0.0
85,0.0,0.0,0.0,0.0,0.0,0.0,0.0
87,0.0,0.0,0.0,0.0,0.0,0.0,0.0
89,0.0,0.0,0.0,0.0,0.0,0.0,0.0
91,0.0,0.0,0.0,0.0,0.0,0.0,0.0
93,0.0,0.0,0.0,0.0,0.0,0.0,0.0
94,0.0,0.0,0.0,0.0,0.0,0.0,0.0
96,0.0,2.335205078125,0.511474609375,436.375,258.75,437.8125,0.0
99,-4.7919921875,2.335205078125,0.511474609375,436.375,258.75,437.8125,35.01171875
101,-4.7919921875,2.335205078125,0.511474609375,436.375,407.625,-2048.0,35.01171875
103,-8.0,7.999755859375,7.999755859375,-2048.0,407.625,-2048.0,35.01171875
104,-8.0,7.999755859375,7.999755859375,-2048.0,407.625,-2048.0,35.01171875
106,-8.0,7.999755859375,-8.0,-1289.0,-2048.0,-2048.0,35.01171875
108,-8.0,7.999755859375,-8.0,-1289.0,-2048.0,-2048.0,35.01171875
110,0.952880859375,0.02099609375,-0.126953125,6.9375,-3.9375,-3.1875,35.01171875
112,0.952880859375,0.02099609375,-0.126953125,6.9375,-3.9375,-3.1875,35.01171875
114,0.957275390625,0.015380859375,-0.1298828125,7.125,-3.1875,-3.5625,35.01171875
116,0.957275390625,0.015380859375,-0.1298828125,7.125,-3.1875,-3.5625,35.01171875
118,0.957275390625,0.015380859375,-0.1298828125,7.125,-3.1875,-3.5625,35.01171875
120,0.958740234375,0.011962890625,-0.13134765625,6.375,-2.5625,-3.8125,35.01171875
122,0.958740234375,0.011962890625,-0.13134765625,6.375,-2.5625,-3.8125,35.01171875
124,0.957763671875,0.01123046875,-0.13037109375,4.375,-1.9375,-3.6875,35.1015625
126,0.957763671875,0.01123046875,-0.13037109375,4.375,-1.9375,-3.6875,35.1015625
128,0.957275390625,0.01025390625,-0.127197265625,2.8125,-1.625,-3.5,35.1015625
130,0.957275390625,0.01025390625,-0.127197265625,2.8125,-1.625,-3.5,35.1015625
132,0.960205078125,0.007568359375,-0.125732421875,2.125,-1.375,-3.3125,35.1015625
134,0.960205078125,0.007568359375,-0.125732421875,2.125,-1.375,-3.3125,35.1015625
136,0.960205078125,0.007568359375,-0.125732421875,1.875,-1.5625,-3.1875,35.1015625
138,0.962890625,0.006591796875,-0.12646484375,1.875,-1.5625,-3.1875,35.1015625
140,0.962890625,0.006591796875,-0.12646484375,1.875,-1.5625,-3.1875,35.1015625
142,0.96533203125,0.00390625,-0.12890625,1.8125,-2.0625,-2.9375,35.1015625
144,0.96533203125,0.00390625,-0.12890625,1.8125,-2.0625,-2.9375,35.1015625
146,0.965087890625,0.0009765625,-0.12548828125,1.5625,-2.6875,-2.9375,35.1015625
148,0.965087890625,0.0009765625,-0.12548828125,1.5625,-2.6875,-2.9375,35.1015625
150,0.96484375,-0.001220703125,-0.11962890625,1.375,-3.25,-2.875,35.1015625
152,0.96484375,-0.001220703125,-0.11962890625,1.375,-3.25,-2.875,35.1015625
154,0.9658203125,-0.002685546875,-0.117919921875,1.0,-3.1875,-2.75,35.1015625
156,0.9658203125,-0.002685546875,-0.117919921875,1.0,-3.1875,-2.75,35.1015625
158,0.9658203125,-0.002685546875,-0.117919921875,1.0,-3.1875,-2.75,35.1015625
160,0.9658203125,-0.00146484375,-0.117431640625,0.9375,-2.875,-2.9375,35.1015625
162,0.9658203125,-0.00146484375,-0.117431640625,0.9375,-2.875,-2.9375,35.1015625
164,0.962646484375,-0.000732421875,-0.117919921875,0.625,-2.6875,-3.1875,35.1015625
166,0.962646484375,-0.000732421875,-0.117919921875,0.625,-2.6875,-3.1875,35.1015625
168,0.9609375,-0.001220703125,-0.116943359375,0.5625,-2.5625,-3.3125,35.1015625
170,0.9609375,-0.001220703125,-0.116943359375,0.5625,-2.5625,-3.3125,35.1015625
172,0.9599609375,-0.002197265625,-0.116943359375,0.375,-2.4375,-3.25,35.1015625
174,0.9599609375,-0.002197265625,-0.116943359375,0.375,-2.4375,-3.25,35.1015625
176,0.9599609375,-0.002197265625,-0.116943359375,-15.625,-2.125,-3.1875,35.1015625
178,0.957763671875,-0.00244140625,-0.11767578125,-0.0625,-2.125,-3.1875,35.1015625
180,0.957763671875,-0.00244140625,-0.11767578125,-0.0625,-2.125,-3.1875,35.1015625
182,0.95703125,-0.002685546875,-0.1201171875,-0.5625,-1.9375,-3.1875,35.1015625
184,0.95703125,-0.002685546875,-0.1201171875,-0.5625,-1.9375,-3.1875,35.1015625
186,0.9560546875,-0.003173828125,-0.123291015625,-0.9375,-1.9375,-2.8125,35.1015625
188,0.9560546875,-0.003173828125,-0.123291015625,-0.9375,-1.9375,-2.8125,35.1015625
190,0.954345703125,-0.002197265625,-0.124755859375,-1.1875,-1.875,-2.3125,35.1015625
192,0.954345703125,-0.002197265625,-0.124755859375,-1.1875,-1.875,-2.3125,35.1015625
194,0.951904296875,0.0009765625,-0.126708984375,-1.625,-1.6875,-1.8125,35.1015625
196,0.951904296875,0.0009765625,-0.126708984375,-1.625,-1.6875,-1.8125,35.1015625
198,0.951904296875,0.0009765625,-0.126708984375,-1.625,-1.6875,-1.8125,35.1015625
200,0.94580078125,0.00341796875,-0.126953125,-2.125,-1.5,-1.0625,35.1015625
202,0.94580078125,0.00341796875,-0.126953125,-2.125,-1.5,-1.0625,35.1015625
204,0.943115234375,0.00537109375,-0.12841796875,-2.5625,-1.1875,-0.25,35.1015625
206,0.943115234375,0.00537109375,-0.12841796875,-2.5625,-1.1875,-0.25,35.1015625
208,0.943603515625,0.0048828125,-0.13134765625,-3.0625,-0.9375,0.25,35.1015625
209,0.943603515625,0.0048828125,-0.13134765625,-3.0625,-0.9375,0.25,35.1015625
212,0.946533203125,0.00439453125,-0.134033203125,-3.375,-1.0,0.625,35.1015625
214,0.946533203125,0.00439453125,-0.134033203125,-3.375,-1.0,0.625,35.1015625
216,0.946533203125,0.00439453125,-0.134033203125,-3.375,-0.875,1.1875,35.1015625
218,0.948974609375,0.002685546875,-0.13427734375,-3.75,-0.875,1.1875,35.1015625
220,0.948974609375,0.002685546875,-0.13427734375,-3.75,-0.875,1.1875,35.1015625
222,0.949462890625,0.00341796875,-0.1376953125,-4.25,-0.8125,1.625,35.1015625
224,0.949462890625,0.00341796875,-0.1376953125,-4.25,-0.8125,1.625,35.1015625
226,0.951416015625,0.003662109375,-0.140625,-4.6875,-0.375,1.8125,35.1015625
228,0.951416015625,0.003662109375,-0.140625,-4.6875,-0.375,1.8125,35.1015625
230,0.952392578125,0.005859375,-0.143310546875,-5.0625,0.1875,1.8125,35.1015625
232,0.952392578125,0.005859375,-0.143310546875,-5.0625,0.1875,1.8125,35.1015625
234,0.953125,0.01220703125,-0.146484375,-5.25,0.5625,1.6875,35.1015625
236,0.953125,0.01220703125,-0.146484375,-5.25,0.5625,1.6875,35.1015625
238,0.954833984375,0.017822265625,-0.156005859375,-5.3125,0.9375,1.0625,35.1015625
240,0.954833984375,0.017822265625,-0.156005859375,-5.3125,0.9375,1.0625,35.1015625
242,0.954833984375,0.017822265625,-0.156005859375,-5.3125,0.9375,1.0625,35.1015625
244,0.96142578125,0.025146484375,-0.170166015625,-5.4375,1.375,0.5625,35.1015625
246,0.96142578125,0.025146484375,-0.170166015625,-5.4375,1.375,0.5625,35.1015625
248,0.96533203125,0.029541015625,-0.18408203125,-5.625,1.875,0.1875,35.1015625
250,0.96533203125,0.029541015625,-0.18408203125,-5.625,1.875,0.1875,35.1015625
252,0.97314453125,0.03564453125,-0.20068359375,-5.375,2.3125,-0.3125,35.1015625
254,0.97314453125,0.03564453125,-0.20068359375,-5.375,2.3125,-0.3125,35.1015625
256,0.97314453125,0.03564453125,-0.20068359375,-5.375,2.8125,-0.625,35.1015625
258,0.981689453125,0.04443359375,-0.221435546875,-4.5625,2.8125,-0.625,35.1015625
261,0.9892578125,0.0537109375,-0.241455078125,-3.625,2.75,-1.0,35.1015625
263,0.9892578125,0.0537109375,-0.241455078125,-3.625,2.75,-1.0,35.1015625
264,0.9892578125,0.0537109375,-0.241455078125,-3.0,2.8125,-1.5625,35.1015625
266,0.999755859375,0.057861328125,-0.2626953125,-3.0,2.8125,-1.5625,35.1171875
268,0.999755859375,0.057861328125,-0.2626953125,-3.0,2.8125,-1.5625,35.1171875
270,1.011474609375,0.055419921875,-0.28271484375,-2.5,2.75,-2.125,35.1171875
272,1.011474609375,0.055419921875,-0.28271484375,-2.5,2.75,-2.125,35.1171875
274,1.027587890625,0.049560546875,-0.30712890625,-1.75,2.5625,-1.875,35.1171875
276,1.027587890625,0.049560546875,-0.30712890625,-1.75,2.5625,-1.875,35.1171875
278,1.044921875,0.04248046875,-0.335205078125,-0.8125,2.4375,-1.125,35.1171875
280,1.044921875,0.04248046875,-0.335205078125,-0.8125,2.4375,-1.125,35.1171875
282,1.06103515625,0.036376953125,-0.366455078125,0.125,2.625,0.0,35.1171875
284,1.06103515625,0.036376953125,-0.366455078125,0.125,2.625,0.0,35.1171875
286,1.06103515625,0.036376953125,-0.366455078125,0.125,2.625,0.0,35.1171875
288,1.083740234375,0.0341796875,-0.39599609375,0.4375,2.625,1.1875,35.1171875
290,1.083740234375,0.0341796875,-0.39599609375,0.4375,2.625,1.1875,35.1171875
292,1.111083984375,0.029296875,-0.424072265625,0.875,2.375,2.4375,35.1171875
294,1.111083984375,0.029296875,-0.424072265625,0.875,2.375,2.4375,35.1171875
296,1.13720703125,0.01708984375,-0.4580078125,1.75,2.0,3.3125,35.1171875
298,1.13720703125,0.01708984375,-0.4580078125,1.75,2.0,3.3125,35.1171875
300,1.13720703125,0.01708984375,-0.4580078125,1.75,2.0,4.4375,35.1171875
302,1.15966796875,-0.008056640625,-0.494873046875,2.3125,1.625,4.4375,35.1171875
304,1.15966796875,-0.008056640625,-0.494873046875,2.3125,1.625,4.4375,35.1171875
306,1.18310546875,-0.0361328125,-0.531005859375,2.5,1.375,5.6875,35.1171875
308,1.18310546875,-0.0361328125,-0.531005859375,2.5,1.375,5.6875,35.1171875
310,1.210693359375,-0.052734375,-0.554443359375,2.0,1.375,7.3125,35.1171875
312,1.210693359375,-0.052734375,-0.554443359375,2.0,1.375,7.3125,35.1171875
314,1.24365234375,-0.05712890625,-0.57177734375,1.4375,0.9375,8.625,35.1171875
316,1.24365234375,-0.05712890625,-0.57177734375,1.4375,0.9375,8.625,35.1171875
318,1.286865234375,-0.05078125,-0.594482421875,1.1875,0.0625,9.3125,35.1171875
320,1.286865234375,-0.05078125,-0.594482421875,1.1875,0.0625,9.3125,35.1171875
322,1.286865234375,-0.05078125,-0.594482421875,1.1875,0.0625,9.3125,35.1171875
324,1.333740234375,-0.049072265625,-0.611328125,1.75,-1.75,8.625,35.1171875
326,1.333740234375,-0.049072265625,-0.611328125,1.75,-1.75,8.625,35.1171875
328,1.373779296875,-0.048828125,-0.620849609375,2.625,-3.75,7.0625,35.1171875
330,1.373779296875,-0.048828125,-0.620849609375,2.625,-3.75,7.0625,35.1171875
332,1.405029296875,-0.0439453125,-0.62744140625,3.5625,-5.125,5.125,35.1171875
334,1.405029296875,-0.0439453125,-0.62744140625,3.5625,-5.125,5.125,35.1171875
336,1.430908203125,-0.039794921875,-0.6279296875,4.375,-6.75,3.0625,35.1171875
338,1.430908203125,-0.039794921875,-0.6279296875,4.375,-6.75,3.0625,35.1171875
340,1.451171875,-0.029052734375,-0.619140625,5.875,-9.0625,1.5625,35.1171875
342,1.451171875,-0.029052734375,-0.619140625,5.875,-9.0625,1.5625,35.1171875
344,1.451171875,-0.029052734375,-0.619140625,5.875,-9.0625,1.5625,35.1171875
346,1.45849609375,-0.0185546875,-0.6162109375,7.625,-11.75,0.6875,35.1171875
348,1.45849609375,-0.0185546875,-0.6162109375,7.625,-11.75,0.6875,35.1171875
349,1.381103515625,-0.005615234375,-0.625732421875,10.5,-14.5625,-2.3125,35.1171875
352,1.381103515625,-0.005615234375,-0.625732421875,10.5,-14.5625,-2.3125,35.1171875
354,1.3916015625,-0.005126953125,-0.60888671875,9.875,-17.0,-5.125,35.1171875
356,1.3916015625,-0.005126953125,-0.60888671875,9.875,-17.0,-5.125,35.1171875
358,1.448486328125,-0.035888671875,-0.619384765625,7.0625,-21.875,-0.9375,35.1171875
360,1.448486328125,-0.035888671875,-0.619384765625,7.0625,-21.875,-0.9375,35.1171875
362,1.448486328125,-0.035888671875,-0.619384765625,7.0625,-21.875,-0.9375,35.1171875
364,1.509033203125,-0.050537109375,-0.63427734375,7.0,-28.25,7.875,35.1171875
365,1.509033203125,-0.050537109375,-0.63427734375,7.0,-28.25,7.875,35.1171875
367,1.49462890625,-0.056884765625,-0.63916015625,8.0625,-32.9375,18.25,35.1171875
369,1.49462890625,-0.056884765625,-0.63916015625,8.0625,-32.9375,18.25,35.1171875
371,1.367919921875,-0.0498046875,-0.64599609375,10.0,-37.0625,26.5625,35.1171875
373,1.367919921875,-0.0498046875,-0.64599609375,10.0,-37.0625,26.5625,35.1171875
376,1.259765625,-0.048095703125,-0.643310546875,9.0,-41.25,33.4375,35.1171875
378,1.259765625,-0.048095703125,-0.643310546875,9.0,-41.25,33.4375,35.1171875
380,1.259765625,-0.048095703125,-0.643310546875,6.4375,-46.25,41.4375,35.1171875
382,1.204345703125,-0.064208984375,-0.6513671875,6.4375,-46.25,41.4375,35.1171875
384,1.204345703125,-0.064208984375,-0.6513671875,6.4375,-46.25,41.4375,35.1171875
386,1.188232421875,-0.08740234375,-0.661376953125,3.125,-51.125,50.6875,35.1171875
388,1.188232421875,-0.08740234375,-0.661376953125,3.125,-51.125,50.6875,35.1171875
389,1.156982421875,-0.108642578125,-0.6650390625,0.625,-55.0625,59.25,35.1171875
391,1.156982421875,-0.108642578125,-0.6650390625,0.625,-55.0625,59.25,35.1171875
393,1.10107421875,-0.1201171875,-0.67138671875,-1.3125,-58.0,65.625,35.1171875
395,1.10107421875,-0.1201171875,-0.67138671875,-1.3125,-58.0,65.625,35.1171875
398,1.042724609375,-0.11962890625,-0.6826171875,-3.6875,-59.5625,69.5,35.1171875
400,1.042724609375,-0.11962890625,-0.6826171875,-3.6875,-59.5625,69.5,35.1171875
402,1.042724609375,-0.11962890625,-0.6826171875,-3.6875,-59.5625,69.5,35.1171875
404,0.994873046875,-0.1171875,-0.700927734375,-6.5,-60.1875,72.5,35.1171875
406,0.994873046875,-0.1171875,-0.700927734375,-6.5,-60.1875,72.5,35.1171875
407,0.950927734375,-0.116455078125,-0.727294921875,-9.125,-60.5,75.3125,35.12890625
409,0.950927734375,-0.116455078125,-0.727294921875,-9.125,-60.5,75.3125,35.12890625
411,0.905517578125,-0.117431640625,-0.752685546875,-10.375,-60.25,77.3125,35.12890625
413,0.905517578125,-0.117431640625,-0.752685546875,-10.375,-60.25,77.3125,35.12890625
415,0.859619140625,-0.113037109375,-0.77685546875,-10.625,-59.5,77.75,35.12890625
417,0.859619140625,-0.113037109375,-0.77685546875,-10.625,-59.5,77.75,35.12890625
420,0.859619140625,-0.113037109375,-0.8037109375,-10.375,-58.1875,76.875,35.12890625
422,0.81787109375,-0.10400390625,-0.8037109375,-10.375,-58.1875,76.875,35.12890625
423,0.81787109375,-0.10400390625,-0.8037109375,-10.375,-58.1875,76.875,35.12890625
425,0.778564453125,-0.0908203125,-0.82861328125,-9.8125,-55.75,74.625,35.12890625
427,0.778564453125,-0.0908203125,-0.82861328125,-9.8125,-55.75,74.625,35.12890625
429,0.746337890625,-0.075927734375,-0.847900390625,-8.5,-51.875,71.375,35.12890625
431,0.746337890625,-0.075927734375,-0.847900390625,-8.5,-51.875,71.375,35.12890625
433,0.720458984375,-0.06396484375,-0.85595703125,-6.1875,-46.5625,67.5,35.12890625
435,0.720458984375,-0.06396484375,-0.85595703125,-6.1875,-46.5625,67.5,35.12890625
437,0.720458984375,-0.06396484375,-0.85595703125,-6.1875,-46.5625,67.5,35.12890625
439,0.701416015625,-0.05322265625,-0.857666015625,-2.5625,-40.125,62.8125,35.12890625
441,0.701416015625,-0.05322265625,-0.857666015625,-2.5625,-40.125,62.8125,35.12890625
443,0.68798828125,-0.044921875,-0.853515625,1.1875,-32.8125,57.6875,35.12890625
445,0.68798828125,-0.044921875,-0.853515625,1.1875,-32.8125,57.6875,35.12890625
447,0.67919921875,-0.03564453125,-0.8369140625,5.0625,-25.5,52.625,35.12890625
449,0.67919921875,-0.03564453125,-0.8369140625,5.0625,-25.5,52.625,35.12890625
451,0.682861328125,-0.019287109375,-0.8017578125,8.4375,-19.25,48.3125,35.12890625
453,0.682861328125,-0.019287109375,-0.8017578125,8.4375,-19.25,48.3125,35.12890625
455,0.682861328125,-0.019287109375,-0.748779296875,11.5625,-14.6875,44.625,35.12890625
457,0.71240234375,-0.00439453125,-0.748779296875,11.5625,-14.6875,44.625,35.12890625
459,0.71240234375,-0.00439453125,-0.748779296875,11.5625,-14.6875,44.625,35.12890625
461,0.76171875,0.000732421875,-0.695068359375,14.25,-11.25,41.5,35.12890625
464,0.76171875,0.000732421875,-0.695068359375,14.25,-9.3125,38.125,35.12890625
466,0.814208984375,-0.0029296875,-0.65234375,16.75,-9.3125,38.125,35.12890625
468,0.814208984375,-0.0029296875,-0.65234375,16.75,-9.3125,38.125,35.12890625
470,0.8544921875,-0.0126953125,-0.61669921875,19.25,-8.25,34.625,35.12890625
471,0.8544921875,-0.0126953125,-0.61669921875,19.25,-8.25,34.625,35.12890625
473,0.883056640625,-0.02197265625,-0.583251953125,21.4375,-8.625,31.5,35.12890625
475,0.883056640625,-0.02197265625,-0.583251953125,21.4375,-8.625,31.5,35.12890625
477,0.90966796875,-0.033935546875,-0.556884765625,23.0625,-11.0,28.75,35.12890625
479,0.90966796875,-0.033935546875,-0.556884765625,23.0625,-11.0,28.75,35.12890625
481,0.90966796875,-0.033935546875,-0.556884765625,23.0625,-11.0,28.75,35.12890625
483,0.931884765625,-0.05712890625,-0.532958984375,24.125,-14.625,25.8125,35.12890625
485,0.931884765625,-0.05712890625,-0.532958984375,24.125,-14.625,25.8125,35.12890625
487,0.939697265625,-0.08642578125,-0.516357421875,25.25,-18.375,22.0625,35.12890625
489,0.939697265625,-0.08642578125,-0.516357421875,25.25,-18.375,22.0625,35.12890625
491,0.9345703125,-0.110107421875,-0.509765625,25.8125,-21.25,17.625,35.12890625
493,0.9345703125,-0.110107421875,-0.509765625,25.8125,-21.25,17.625,35.12890625
495,0.9248046875,-0.12353515625,-0.5087890625,25.9375,-23.6875,13.375,35.12890625
497,0.9248046875,-0.12353515625,-0.5087890625,25.9375,-23.6875,13.375,35.12890625
499,0.9248046875,-0.12353515625,-0.5087890625,25.9375,-23.6875,13.375,35.12890625
501,0.916259765625,-0.13330078125,-0.51171875,25.4375,-25.8125,9.1875,35.12890625
503,0.916259765625,-0.13330078125,-0.51171875,25.4375,-25.8125,9.1875,35.12890625
505,0.91162109375,-0.14404296875,-0.525146484375,24.5,-27.375,5.375,35.12890625
507,0.91162109375,-0.14404296875,-0.525146484375,24.5,-27.375,5.375,35.12890625
509,0.9052734375,-0.156005859375,-0.54931640625,23.1875,-28.25,1.6875,35.12890625
511,0.9052734375,-0.156005859375,-0.54931640625,23.1875,-28.25,1.6875,35.12890625
513,0.887939453125,-0.1669921875,-0.57666015625,21.5,-27.875,-1.375,35.12890625
515,0.887939453125,-0.1669921875,-0.57666015625,21.5,-27.875,-1.375,35.12890625
517,0.855712890625,-0.175048828125,-0.602294921875,19.125,-26.1875,-2.5,35.12890625
519,0.855712890625,-0.175048828125,-0.602294921875,19.125,-26.1875,-2.5,35.12890625
521,0.855712890625,-0.175048828125,-0.602294921875,19.125,-26.1875,-2.5,35.12890625
523,0.81201171875,-0.18359375,-0.62353515625,16.0,-23.3125,-1.5,35.12890625
525,0.81201171875,-0.18359375,-0.62353515625,16.0,-23.3125,-1.5,35.12890625
527,0.769775390625,-0.191162109375,-0.6396484375,12.25,-18.75,2.25,35.12890625
529,0.769775390625,-0.191162109375,-0.6396484375,12.25,-18.75,2.25,35.12890625
531,0.73095703125,-0.192626953125,-0.6474609375,7.6875,-12.75,8.6875,35.12890625
533,0.73095703125,-0.192626953125,-0.6474609375,7.6875,-12.75,8.6875,35.12890625
535,0.698974609375,-0.187255859375,-0.645751953125,2.125,-5.5625,17.3125,35.12890625
537,0.698974609375,-0.187255859375,-0.645751953125,2.125,-5.5625,17.3125,35.12890625
539,0.698974609375,-0.187255859375,-0.645751953125,-4.1875,2.125,27.3125,35.12890625
541,0.6806640625,-0.178955078125,-0.633056640625,-4.1875,2.125,27.3125,35.12890625
543,0.6806640625,-0.178955078125,-0.633056640625,-4.1875,2.125,27.3125,35.12890625
545,0.690185546875,-0.1708984375,-0.60546875,-10.9375,9.8125,37.9375,35.12890625
547,0.690185546875,-0.1708984375,-0.60546875,-10.9375,9.8125,37.9375,35.12890625
549,0.7236328125,-0.16796875,-0.5712890625,-17.25,16.1875,48.625,35.12890625
551,0.7236328125,-0.16796875,-0.5712890625,-17.25,16.1875,48.625,35.12890625
553,0.773681640625,-0.170166015625,-0.531005859375,-22.0,20.5625,57.375,35.12890625
555,0.773681640625,-0.170166015625,-0.531005859375,-22.0,20.5625,57.375,35.12890625
557,0.8232421875,-0.171875,-0.486083984375,-24.75,23.1875,62.75,35.12890625
559,0.8232421875,-0.171875,-0.486083984375,-24.75,23.1875,62.75,35.12890625
561,0.8232421875,-0.171875,-0.486083984375,-24.75,23.1875,62.75,35.12890625
563,0.862548828125,-0.16455078125,-0.4501953125,-25.625,24.625,64.8125,35.12890625
565,0.862548828125,-0.16455078125,-0.4501953125,-25.625,24.625,64.8125,35.12890625
567,0.883056640625,-0.149169921875,-0.42626953125,-25.5625,25.375,63.125,35.12890625
569,0.883056640625,-0.149169921875,-0.42626953125,-25.5625,25.375,63.125,35.12890625
573,0.89111328125,-0.130615234375,-0.40380859375,-24.625,26.3125,58.1875,35.12890625
577,0.896240234375,-0.111328125,-0.3828125,-22.9375,27.25,50.875,35.12890625
579,0.896240234375,-0.111328125,-0.3828125,-22.9375,27.25,50.875,35.12890625
581,0.90185546875,-0.101806640625,-0.357666015625,-20.1875,27.9375,41.5625,35.12890625
582,0.90185546875,-0.101806640625,-0.357666015625,-20.1875,27.9375,41.5625,35.12890625
585,0.90673828125,-0.10546875,-0.33740234375,-16.625,28.125,30.9375,35.12890625
587,0.90673828125,-0.10546875,-0.33740234375,-16.625,28.125,30.9375,35.12890625
589,0.905029296875,-0.113037109375,-0.32861328125,-12.75,28.5,19.6875,35.12890625
591,0.905029296875,-0.113037109375,-0.32861328125,-12.75,28.5,19.6875,35.12890625
593,0.886962890625,-0.12451171875,-0.321533203125,-9.875,30.0625,9.125,35.12890625
595,0.886962890625,-0.12451171875,-0.321533203125,-9.875,30.0625,9.125,35.12890625
597,0.886962890625,-0.12451171875,-0.321533203125,-8.5625,32.3125,0.625,35.12890625
599,0.854248046875,-0.141357421875,-0.31640625,-8.5625,32.3125,0.625,35.12890625
601,0.854248046875,-0.141357421875,-0.31640625,-8.5625,32.3125,-5.0,35.12890625
603,0.815673828125,-0.157470703125,-0.31005859375,-8.9375,35.0625,-5.0,35.12890625
605,0.815673828125,-0.157470703125,-0.31005859375,-8.9375,35.0625,-5.0,35.12890625
607,0.778564453125,-0.169189453125,-0.305419921875,-10.6875,38.375,-6.625,35.12890625
609,0.778564453125,-0.169189453125,-0.305419921875,-10.6875,38.375,-6.625,35.12890625
611,0.7470703125,-0.1787109375,-0.304443359375,-14.25,42.5625,-5.0625,35.12890625
613,0.7470703125,-0.1787109375,-0.304443359375,-14.25,42.5625,-5.0625,35.12890625
615,0.714599609375,-0.183837890625,-0.311767578125,-18.8125,48.125,-0.875,35.12890625
617,0.714599609375,-0.183837890625,-0.311767578125,-18.8125,48.125,-0.875,35.12890625
619,0.714599609375,-0.183837890625,-0.311767578125,-18.8125,48.125,-0.875,35.12890625
621,0.668701171875,-0.178466796875,-0.326416015625,-23.3125,54.375,5.6875,35.12890625
623,0.668701171875,-0.162109375,-0.345703125,-27.1875,61.8125,13.375,35.12890625
625,0.612548828125,-0.162109375,-0.345703125,-27.1875,61.8125,13.375,35.12890625
627,0.612548828125,-0.162109375,-0.345703125,-27.1875,61.8125,13.375,35.12890625
629,0.5576171875,-0.138671875,-0.3642578125,-30.625,69.8125,21.5625,35.12890625
631,0.5576171875,-0.138671875,-0.3642578125,-30.625,69.8125,21.5625,35.12890625
633,0.510009765625,-0.114501953125,-0.37744140625,-33.3125,78.25,29.1875,35.12890625
635,0.510009765625,-0.114501953125,-0.37744140625,-33.3125,78.25,29.1875,35.12890625
637,0.466796875,-0.0927734375,-0.361083984375,-34.6875,87.625,36.375,35.12890625
639,0.466796875,-0.0927734375,-0.361083984375,-34.6875,87.625,36.375,35.12890625
641,0.466796875,-0.0927734375,-0.361083984375,-34.6875,87.625,36.375,35.12890625
643,0.43505859375,-0.072021484375,-0.315185546875,-34.6875,97.125,42.5625,35.12890625
645,0.43505859375,-0.072021484375,-0.315185546875,-34.6875,97.125,42.5625,35.12890625
647,0.422119140625,-0.061279296875,-0.25537109375,-32.75,106.25,47.25,35.12890625
649,0.422119140625,-0.061279296875,-0.25537109375,-32.75,106.25,47.25,35.12890625
651,0.424072265625,-0.05908203125,-0.181884765625,-29.6875,114.875,49.6875,35.12890625
653,0.424072265625,-0.05908203125,-0.181884765625,-29.6875,114.875,49.6875,35.12890625
655,0.439697265625,-0.067138671875,-0.080322265625,-26.625,121.375,50.375,35.12890625
657,0.439697265625,-0.067138671875,-0.080322265625,-26.625,121.375,50.375,35.12890625
659,0.439697265625,-0.067138671875,-0.080322265625,-23.5,124.6875,49.6875,35.12890625
661,0.48779296875,-0.089111328125,0.05078125,-23.5,124.6875,49.6875,35.12890625
663,0.48779296875,-0.089111328125,0.05078125,-23.5,124.6875,49.6875,35.12890625
666,0.550048828125,-0.12255859375,0.17431640625,-20.125,125.0625,47.4375,35.12890625
668,0.59716796875,-0.1650390625,0.288818359375,-16.0,122.9375,44.3125,35.12890625
670,0.59716796875,-0.1650390625,0.288818359375,-16.0,122.9375,44.3125,35.12890625
672,0.59716796875,-0.1650390625,0.288818359375,-16.0,122.9375,44.3125,35.12890625
674,0.61669921875,-0.205322265625,0.39306640625,-11.0,120.1875,40.125,35.12890625
676,0.61669921875,-0.205322265625,0.39306640625,-11.0,120.1875,40.125,35.12890625
678,0.601806640625,-0.23583984375,0.479248046875,-5.8125,117.6875,35.5625,35.12890625
680,0.601806640625,-0.23583984375,0.479248046875,-5.8125,117.6875,35.5625,35.12890625
681,0.558349609375,-0.25439453125,0.550537109375,-0.8125,115.6875,31.0,35.12890625
683,0.558349609375,-0.25439453125,0.550537109375,-0.8125,115.6875,31.0,35.12890625
685,0.558349609375,-0.25439453125,0.61669921875,3.5625,114.75,26.8125,35.12890625
688,0.5,-0.265380859375,0.61669921875,3.5625,114.75,26.8125,35.12890625
690,0.5,-0.265380859375,0.61669921875,3.5625,114.75,22.875,35.12890625
692,0.44384765625,-0.28076171875,0.695556640625,6.25,114.875,22.875,35.12890625
694,0.44384765625,-0.28076171875,0.695556640625,6.25,114.875,22.875,35.12890625
695,0.404052734375,-0.302490234375,0.7880859375,6.25,115.875,19.625,35.12890625
697,0.404052734375,-0.302490234375,0.7880859375,6.25,115.875,19.625,35.12890625
699,0.388671875,-0.330810546875,0.877197265625,2.9375,118.3125,17.375,35.12890625
701,0.388671875,-0.330810546875,0.877197265625,2.9375,118.3125,17.375,35.12890625
703,0.38916015625,-0.3623046875,0.955322265625,-3.3125,121.625,16.25,35.12890625
705,0.38916015625,-0.3623046875,0.955322265625,-3.3125,121.625,16.25,35.12890625
707,0.38916015625,-0.3623046875,0.955322265625,-3.3125,121.625,16.25,35.12890625
709,0.39306640625,-0.3828125,1.010986328125,-10.3125,125.25,16.0625,35.12890625
712,0.39306640625,-0.3828125,1.010986328125,-10.3125,125.25,16.0625,35.12890625
714,0.388916015625,-0.3896484375,1.05078125,-17.9375,129.125,15.625,35.12890625
716,0.388916015625,-0.3896484375,1.05078125,-17.9375,129.125,15.625,35.12890625
717,0.3857421875,-0.37548828125,1.088623046875,-26.1875,132.5625,13.9375,35.12890625
720,0.3857421875,-0.37548828125,1.088623046875,-26.1875,132.5625,13.9375,35.12890625
721,0.397705078125,-0.330322265625,1.115966796875,-34.3125,135.4375,9.9375,35.12890625
723,0.397705078125,-0.330322265625,1.115966796875,-34.3125,135.4375,9.9375,35.12890625
725,0.4306640625,-0.26025390625,1.12109375,-41.5625,137.875,4.25,35.12890625
727,0.4306640625,-0.26025390625,1.12109375,-41.5625,137.875,4.25,35.12890625
729,0.4306640625,-0.26025390625,1.12109375,-41.5625,137.875,4.25,35.12890625
731,0.476318359375,-0.170654296875,1.1123046875,-46.25,140.3125,-3.0625,35.12890625
734,0.476318359375,-0.170654296875,1.1123046875,-46.25,140.3125,-11.375,35.12890625
736,0.5263671875,-0.090087890625,1.119384765625,-48.25,142.1875,-11.375,35.12890625
738,0.5263671875,-0.090087890625,1.119384765625,-48.25,142.1875,-11.375,35.12890625
740,0.579345703125,-0.010498046875,1.123291015625,-47.375,142.9375,-20.625,35.12890625
742,0.579345703125,-0.010498046875,1.123291015625,-47.375,142.9375,-20.625,35.12890625
744,0.636962890625,0.068359375,1.12060546875,-44.4375,142.375,-30.375,35.12890625
746,0.636962890625,0.068359375,1.12060546875,-44.4375,142.375,-30.375,35.12890625
748,0.70458984375,0.134033203125,1.1103515625,-39.9375,141.1875,-39.6875,35.12890625
750,0.70458984375,0.134033203125,1.1103515625,-39.9375,141.1875,-39.6875,35.12890625
752,0.70458984375,0.134033203125,1.1103515625,-39.9375,141.1875,-39.6875,35.12890625
753,0.773681640625,0.179931640625,1.095703125,-34.75,139.375,-47.5,35.12890625
756,0.773681640625,0.179931640625,1.095703125,-34.75,139.375,-47.5,35.12890625
758,0.83837890625,0.205078125,1.073486328125,-29.625,136.75,-53.5,35.12890625
760,0.83837890625,0.205078125,1.073486328125,-29.625,136.75,-53.5,35.12890625
762,0.895751953125,0.21240234375,1.05029296875,-24.4375,133.5625,-56.875,35.12890625
764,0.895751953125,0.21240234375,1.05029296875,-24.4375,133.5625,-56.875,35.12890625
766,0.947998046875,0.20654296875,1.029296875,-20.3125,129.5625,-57.375,35.12890625
768,0.947998046875,0.20654296875,1.029296875,-20.3125,129.5625,-57.375,35.12890625
770,1.000244140625,0.19384765625,1.006591796875,-17.25,124.375,-55.5,35.12890625
772,1.000244140625,0.19384765625,1.006591796875,-17.25,124.375,-55.5,35.12890625
774,1.000244140625,0.19384765625,1.006591796875,-17.25,124.375,-55.5,35.12890625
776,1.052490234375,0.180908203125,0.978515625,-15.0625,117.5625,-51.375,35.12890625
778,1.052490234375,0.180908203125,0.978515625,-15.0625,117.5625,-51.375,35.12890625
780,1.09814453125,0.17626953125,0.943603515625,-13.0,109.25,-45.375,35.12890625
782,1.09814453125,0.17626953125,0.943603515625,-13.0,109.25,-45.375,35.12890625
784,1.130615234375,0.176513671875,0.904052734375,-10.8125,100.1875,-38.4375,35.12890625
786,1.130615234375,0.176513671875,0.904052734375,-10.8125,100.1875,-38.4375,35.12890625
788,1.14990234375,0.1728515625,0.867431640625,-8.8125,91.375,-31.125,35.12890625
790,1.14990234375,0.1728515625,0.867431640625,-8.8125,91.375,-31.125,35.12890625
792,1.157470703125,0.16015625,0.840576171875,-6.375,82.5,-24.3125,35.12890625
794,1.157470703125,0.16015625,0.840576171875,-6.375,82.5,-24.3125,35.12890625
796,1.157470703125,0.16015625,0.840576171875,-3.75,73.625,-18.5625,35.12890625
798,1.15966796875,0.138671875,0.82080078125,-3.75,73.625,-18.5625,35.12890625
801,1.161865234375,0.1162109375,0.797119140625,-1.0625,65.0,-13.9375,35.12890625
803,1.161865234375,0.1162109375,0.797119140625,-1.0625,65.0,-13.9375,35.12890625
804,1.161865234375,0.1162109375,0.797119140625,-1.0625,65.0,-13.9375,35.12890625
806,1.16357421875,0.097412109375,0.7744140625,1.125,56.625,-10.125,35.12890625
809,1.16357421875,0.097412109375,0.7744140625,1.125,56.625,-10.125,35.12890625
810,1.1591796875,0.08544921875,0.7509765625,2.9375,48.1875,-7.25,35.12890625
813,1.1591796875,0.08544921875,0.7509765625,2.9375,48.1875,-7.25,35.12890625
814,1.15380859375,0.07958984375,0.71923828125,5.0625,39.625,-4.5625,35.12890625
816,1.15380859375,0.07958984375,0.71923828125,5.0625,39.625,-4.5625,35.12890625
818,1.148193359375,0.072265625,0.686279296875,7.75,31.6875,-2.625,35.12890625
821,1.148193359375,0.072265625,0.686279296875,7.75,31.6875,-2.625,35.12890625
822,1.148193359375,0.072265625,0.686279296875,7.75,31.6875,-2.625,35.12890625
825,1.1376953125,0.056884765625,0.6591796875,10.8125,23.375,-0.6875,35.12890625
827,1.1376953125,0.056884765625,0.6591796875,10.8125,23.375,15.3125,35.12890625
829,1.121337890625,0.035400390625,0.641357421875,14.0625,15.25,1.5,35.12890625
831,1.121337890625,0.035400390625,0.641357421875,14.0625,15.25,1.5,35.12890625
833,1.103515625,0.008544921875,0.631591796875,17.25,7.75,3.5625,35.16796875
835,1.103515625,0.008544921875,0.631591796875,17.25,7.75,3.5625,35.16796875
837,1.08056640625,-0.02099609375,0.631103515625,20.0,0.9375,5.3125,35.16796875
838,1.08056640625,-0.02099609375,0.631103515625,20.0,0.9375,5.3125,35.16796875
840,1.064697265625,-0.053466796875,0.635498046875,22.1875,-5.75,6.875,35.16796875
842,1.064697265625,-0.053466796875,0.635498046875,22.1875,-5.75,6.875,35.16796875
844,1.064697265625,-0.053466796875,0.635498046875,22.1875,-5.75,6.875,35.16796875
847,1.05859375,-0.091796875,0.634521484375,24.0,-12.375,8.5625,35.16796875
849,1.05859375,-0.091796875,0.634521484375,24.0,-12.375,8.5625,35.16796875
851,1.052734375,-0.133544921875,0.625244140625,25.3125,-19.0,9.0625,35.16796875
853,1.052734375,-0.133544921875,0.625244140625,25.3125,-19.0,9.0625,35.16796875
854,1.034912109375,-0.17529296875,0.61083984375,26.3125,-25.5625,8.8125,35.16796875
857,1.034912109375,-0.17529296875,0.61083984375,26.3125,-25.5625,8.8125,35.16796875
859,1.001953125,-0.2119140625,0.596435546875,27.1875,-31.75,7.875,35.16796875
861,1.001953125,-0.2119140625,0.596435546875,27.1875,-31.75,7.875,35.16796875
862,1.001953125,-0.2119140625,0.596435546875,27.5,-37.375,7.125,35.16796875
864,0.960693359375,-0.24560546875,0.575927734375,27.5,-37.375,7.125,35.16796875
866,0.960693359375,-0.24560546875,0.575927734375,27.5,-37.375,7.125,35.16796875
869,0.92041015625,-0.271728515625,0.548095703125,26.875,-42.375,6.875,35.16796875
871,0.92041015625,-0.271728515625,0.548095703125,26.875,-42.375,6.875,35.16796875
873,0.87890625,-0.286376953125,0.51513671875,25.9375,-46.625,6.9375,35.16796875
875,0.87890625,-0.286376953125,0.51513671875,25.9375,-46.625,6.9375,35.16796875
877,0.837158203125,-0.2919921875,0.478271484375,25.0625,-49.625,6.75,35.16796875
879,0.837158203125,-0.2919921875,0.478271484375,25.0625,-49.625,6.75,35.16796875
881,0.796630859375,-0.285400390625,0.43701171875,24.75,-51.625,6.5625,35.16796875
883,0.796630859375,-0.285400390625,0.43701171875,24.75,-51.625,6.5625,35.16796875
885,0.7578125,-0.2666015625,0.401611328125,24.5625,-52.9375,6.3125,35.16796875
887,0.7578125,-0.2666015625,0.401611328125,24.5625,-52.9375,6.3125,35.16796875
889,0.7578125,-0.2666015625,0.401611328125,24.5625,-52.9375,6.3125,35.16796875
891,0.721435546875,-0.25,0.365478515625,24.1875,-53.25,6.75,35.16796875
892,0.721435546875,-0.25,0.365478515625,24.1875,-53.25,6.75,35.16796875
895,0.696533203125,-0.244140625,0.32421875,23.9375,-52.5,7.3125,35.16796875
897,0.696533203125,-0.244140625,0.32421875,23.9375,-52.5,7.3125,35.16796875
899,0.681640625,-0.24658203125,0.28564453125,24.0625,-50.9375,8.6875,35.16796875
901,0.681640625,-0.24658203125,0.28564453125,24.0625,-50.9375,8.6875,35.16796875
903,0.6728515625,-0.255126953125,0.255126953125,24.125,-49.1875,10.9375,35.16796875
905,0.6728515625,-0.255126953125,0.255126953125,24.125,-49.1875,10.9375,35.16796875
907,0.6728515625,-0.255126953125,0.255126953125,24.125,-49.1875,10.9375,35.16796875
908,0.666748046875,-0.262939453125,0.230224609375,23.9375,-47.375,14.375,35.16796875
910,0.666748046875,-0.262939453125,0.230224609375,23.9375,-47.375,14.375,35.16796875
912,0.66064453125,-0.276123046875,0.2119140625,23.8125,-45.5625,18.8125,35.16796875
914,0.66064453125,-0.276123046875,0.2119140625,23.8125,-45.5625,18.8125,35.16796875
917,0.65576171875,-0.2939453125,0.1982421875,23.8125,-43.625,23.6875,35.16796875
919,0.65576171875,-0.2939453125,0.1982421875,23.8125,-43.625,23.6875,35.16796875
921,0.6533203125,-0.3125,0.19287109375,23.5,-41.5,29.0625,35.16796875
922,0.6533203125,-0.3125,0.19287109375,23.5,-41.5,29.0625,35.16796875
925,0.6533203125,-0.375,0.1962890625,22.5625,-39.3125,34.1875,35.16796875
927,0.6513671875,-0.341064453125,0.1962890625,22.5625,-39.3125,34.1875,35.16796875
929,0.6513671875,-0.341064453125,0.1962890625,22.5625,-39.3125,34.1875,35.16796875
930,0.653076171875,-0.374755859375,0.206298828125,20.875,-36.4375,38.8125,35.16796875
933,0.653076171875,-0.374755859375,0.206298828125,20.875,-36.4375,38.8125,35.16796875
934,0.6630859375,-0.41162109375,0.220703125,18.375,-33.4375,43.0,35.16796875
936,0.6630859375,-0.41162109375,0.220703125,18.375,-33.4375,43.0,35.16796875
938,0.681884765625,-0.446044921875,0.238037109375,15.875,-30.625,46.375,35.16796875
941,0.681884765625,-0.446044921875,0.238037109375,15.875,-30.625,46.375,35.16796875
943,0.703125,-0.474609375,0.25927734375,13.0,-28.0,48.9375,35.16796875
945,0.703125,-0.474609375,0.25927734375,13.0,-28.0,48.9375,35.16796875
947,0.703125,-0.474609375,0.25927734375,13.0,-28.0,50.625,35.16796875
948,0.722900390625,-0.49755859375,0.28125,9.75,-25.625,50.625,35.16796875
950,0.722900390625,-0.49755859375,0.28125,9.75,-25.625,50.625,35.16796875
952,0.74658203125,-0.51220703125,0.307373046875,6.625,-23.75,50.9375,35.16796875
954,0.74658203125,-0.51220703125,0.307373046875,6.625,-23.75,50.9375,35.16796875
956,0.7744140625,-0.51806640625,0.33837890625,3.625,-22.75,49.3125,35.16796875
958,0.7744140625,-0.51806640625,0.33837890625,3.625,-22.75,49.3125,35.16796875
960,0.807861328125,-0.51416015625,0.37060546875,1.125,-22.875,45.625,35.16796875
962,0.807861328125,-0.51416015625,0.37060546875,1.125,-22.875,45.625,35.16796875
966,0.842041015625,-0.50341796875,0.405029296875,-0.8125,-23.75,39.6875,35.16796875
968,0.842041015625,-0.50341796875,0.405029296875,-0.8125,-23.75,39.6875,35.16796875
970,0.868896484375,-0.484130859375,0.439697265625,-1.75,-25.4375,31.375,35.16796875
972,0.868896484375,-0.484130859375,0.439697265625,-1.75,-25.4375,31.375,35.16796875
974,0.888427734375,-0.455078125,0.46240234375,-1.6875,-27.625,20.8125,35.12890625
976,0.888427734375,-0.455078125,0.46240234375,-1.6875,-27.625,20.8125,35.12890625
978,0.8984375,-0.418701171875,0.4716796875,-0.8125,-29.875,9.0625,35.12890625
980,0.8984375,-0.418701171875,0.4716796875,-0.8125,-29.875,9.0625,35.12890625
982,0.8984375,-0.368896484375,0.46728515625,0.625,-32.0625,-4.0,35.12890625
984,0.9052734375,-0.368896484375,0.46728515625,0.625,-32.0625,-4.0,35.12890625
986,0.9052734375,-0.368896484375,0.46728515625,0.625,-32.0625,-4.0,35.12890625
989,0.9130859375,-0.311279296875,0.457763671875,2.3125,-33.75,-16.5,35.12890625
991,0.9130859375,-0.311279296875,0.457763671875,4.75,-34.625,-27.625,35.12890625
993,0.9248046875,-0.254638671875,0.4482421875,4.75,-34.625,-27.625,35.12890625
995,0.9248046875,-0.254638671875,0.4482421875,4.75,-34.625,-27.625,35.12890625
997,0.939453125,-0.203369140625,0.439453125,7.75,-35.0,-36.6875,35.12890625
999,0.939453125,-0.203369140625,0.439453125,7.75,-35.0,-36.6875,35.12890625
1001,0.956787109375,-0.16064453125,0.431884765625,11.5625,-34.9375,-42.875,35.12890625
1003,0.956787109375,-0.16064453125,0.431884765625,11.5625,-34.9375,-42.875,35.12890625
1005,0.9755859375,-0.125,0.424072265625,15.75,-34.25,-45.5625,35.12890625
1007,0.9755859375,-0.125,0.424072265625,15.75,-34.25,-45.5625,35.12890625
1009,0.98828125,-0.10107421875,0.4248046875,19.25,-33.75,-44.625,35.12890625
1011,0.98828125,-0.10107421875,0.4248046875,19.25,-33.75,-44.625,35.12890625
1013,0.997802734375,-0.092529296875,0.439208984375,22.0625,-33.4375,-40.625,35.12890625
1016,0.997802734375,-0.092529296875,0.439208984375,22.0625,-33.4375,-40.625,35.12890625
1018,0.997802734375,-0.101318359375,0.462158203125,24.0,-32.5,-33.6875,35.12890625
1019,1.006103515625,-0.101318359375,0.462158203125,24.0,-32.5,-33.6875,35.12890625
1021,1.006103515625,-0.101318359375,0.462158203125,24.0,-32.5,-33.6875,35.12890625
1023,1.012451171875,-0.120361328125,0.495361328125,25.375,-32.0625,-24.4375,35.12890625
1025,1.012451171875,-0.120361328125,0.495361328125,25.375,-32.0625,-24.4375,35.12890625
1027,1.019287109375,-0.146728515625,0.538818359375,25.375,-32.375,-13.8125,35.12890625
1029,1.019287109375,-0.146728515625,0.538818359375,25.375,-32.375,-13.8125,35.12890625
1031,1.029296875,-0.179931640625,0.59033203125,24.625,-33.5625,-2.5625,35.12890625
1033,1.029296875,-0.179931640625,0.59033203125,24.625,-33.5625,-2.5625,35.12890625
1036,1.039306640625,-0.211669921875,0.642822265625,23.8125,-35.625,7.8125,35.12890625
1038,1.039306640625,-0.211669921875,0.642822265625,23.8125,-35.625,7.8125,35.12890625
1040,1.039306640625,-0.211669921875,0.642822265625,23.8125,-35.625,16.9375,35.12890625
1041,1.037841796875,-0.232421875,0.689453125,23.0625,-38.375,16.9375,35.12890625
1043,1.037841796875,-0.232421875,0.689453125,23.0625,-38.375,16.9375,35.12890625
1045,1.023681640625,-0.248779296875,0.727783203125,21.625,-42.0625,24.625,35.12890625
1047,1.023681640625,-0.248779296875,0.727783203125,21.625,-42.0625,24.625,35.12890625
1049,0.9990234375,-0.2646484375,0.758056640625,19.6875,-46.375,30.125,35.12890625
1052,0.9990234375,-0.2646484375,0.758056640625,19.6875,-46.375,30.125,35.12890625
1053,0.964599609375,-0.279052734375,0.776611328125,17.0625,-50.875,32.875,35.12890625
1055,0.964599609375,-0.279052734375,0.776611328125,17.0625,-50.875,32.875,35.12890625
1058,0.924072265625,-0.288330078125,0.7861328125,13.9375,-55.25,32.5,35.12890625
1060,0.924072265625,-0.288330078125,0.7861328125,13.9375,-55.25,32.5,35.12890625
1062,0.924072265625,-0.288330078125,0.7861328125,11.4375,-59.375,29.1875,35.12890625
1064,0.87744140625,-0.27880859375,0.779541015625,11.4375,-59.375,29.1875,35.12890625
1066,0.87744140625,-0.27880859375,0.779541015625,11.4375,-59.375,29.1875,35.12890625
1068,0.82666015625,-0.24658203125,0.748046875,9.0625,-62.4375,23.5,35.12890625
1070,0.82666015625,-0.24658203125,0.748046875,9.0625,-62.4375,23.5,35.12890625
1072,0.77197265625,-0.19482421875,0.70068359375,5.9375,-64.0,16.9375,35.12890625
1074,0.77197265625,-0.19482421875,0.70068359375,5.9375,-64.0,16.9375,35.12890625
1076,0.724853515625,-0.1298828125,0.646484375,2.25,-64.875,10.4375,35.12890625
1078,0.724853515625,-0.1298828125,0.646484375,2.25,-64.875,10.4375,35.12890625
1080,0.698974609375,-0.056396484375,0.58642578125,-0.5,-65.0,5.0,35.12890625
1082,0.698974609375,-0.056396484375,0.58642578125,-0.5,-65.0,5.0,35.12890625
1084,0.6962890625,0.02001953125,0.516845703125,-2.0625,-64.3125,1.25,35.12890625
1086,0.6962890625,0.02001953125,0.516845703125,-2.0625,-64.3125,1.25,35.12890625
1088,0.6962890625,0.02001953125,0.516845703125,-2.0625,-64.3125,1.25,35.12890625
1090,0.706298828125,0.097900390625,0.453857421875,-2.0625,-62.875,-1.1875,35.12890625
1092,0.706298828125,0.097900390625,0.453857421875,-2.0625,-62.875,-1.1875,35.12890625
1094,0.71533203125,0.17578125,0.411865234375,-0.625,-60.5,-2.5,35.12890625
1096,0.71533203125,0.17578125,0.411865234375,-0.625,-60.5,-2.5,35.12890625
1098,0.720458984375,0.238037109375,0.3759765625,2.4375,-58.1875,-2.125,35.12890625
1100,0.720458984375,0.238037109375,0.3759765625,2.4375,-58.1875,-2.125,35.12890625
1102,0.73193359375,0.28955078125,0.359375,8.4375,-56.375,0.9375,35.12890625
1104,0.73193359375,0.28955078125,0.359375,8.4375,-56.375,0.9375,35.12890625
1106,0.75244140625,0.315185546875,0.3623046875,15.25,-54.875,6.0,35.12890625
1108,0.75244140625,0.315185546875,0.3623046875,15.25,-54.875,6.0,35.12890625
1110,0.75244140625,0.315185546875,0.3623046875,15.25,-54.875,6.0,35.12890625
1112,0.767822265625,0.3056640625,0.3837890625,22.8125,-53.5,13.0,35.12890625
1114,0.767822265625,0.3056640625,0.3837890625,22.8125,-53.5,13.0,35.12890625
1116,0.764892578125,0.271240234375,0.427001953125,31.1875,-51.6875,21.125,35.1875
1118,0.764892578125,0.271240234375,0.427001953125,31.1875,-51.6875,21.125,35.1875
1120,0.745361328125,0.218994140625,0.475341796875,38.625,-49.5,29.0625,35.1875
1122,0.745361328125,0.218994140625,0.475341796875,38.625,-49.5,29.0625,35.1875
1124,0.725830078125,0.1513671875,0.52294921875,44.3125,-47.6875,36.3125,35.1875
1126,0.725830078125,0.1513671875,0.52294921875,44.3125,-47.6875,36.3125,35.1875
1128,0.725830078125,0.077392578125,0.56494140625,48.5,-46.4375,42.3125,35.1875
1130,0.716796875,0.077392578125,0.56494140625,48.5,-46.4375,42.3125,35.1875
1132,0.716796875,0.077392578125,0.56494140625,48.5,-46.4375,42.3125,35.1875
1134,0.712158203125,0.001708984375,0.59326171875,51.1875,-46.4375,47.5,35.1875
1136,0.712158203125,0.001708984375,0.59326171875,51.1875,-46.4375,47.5,35.1875
1138,0.708984375,-0.071533203125,0.61572265625,52.0625,-47.125,51.5625,35.1875
1140,0.708984375,-0.071533203125,0.61572265625,52.0625,-47.125,51.5625,35.1875
1142,0.6953125,-0.13916015625,0.637451171875,52.4375,-47.875,53.75,35.1875
1146,0.6669921875,-0.1943359375,0.648681640625,51.875,-48.6875,53.625,35.1875
1148,0.6669921875,-0.1943359375,0.648681640625,51.875,-48.6875,53.625,35.1875
1150,0.6669921875,-0.1943359375,0.648681640625,51.875,-48.6875,53.625,35.1875
1153,0.635498046875,-0.22607421875,0.64697265625,50.4375,-49.875,50.375,35.1875
1155,0.635498046875,-0.22607421875,0.64697265625,50.4375,-51.25,43.5,35.1875
1157,0.617919921875,-0.238037109375,0.6357421875,48.125,-51.25,43.5,35.1875
1159,0.617919921875,-0.238037109375,0.6357421875,48.125,-51.25,43.5,35.1875
1161,0.62060546875,-0.23876953125,0.6123046875,45.6875,-52.8125,33.125,35.1875
1163,0.62060546875,-0.23876953125,0.6123046875,45.6875,-52.8125,33.125,35.1875
1165,0.635009765625,-0.226318359375,0.578369140625,43.8125,-54.0625,20.3125,35.1875
1167,0.635009765625,-0.226318359375,0.578369140625,43.8125,-54.0625,20.3125,35.1875
1169,0.65234375,-0.200927734375,0.537109375,42.875,-54.375,6.0,35.1875
1170,0.65234375,-0.200927734375,0.537109375,42.875,-54.375,6.0,35.1875
1172,0.65234375,-0.200927734375,0.537109375,42.875,-53.75,-8.5625,35.1875
1174,0.663330078125,-0.16650390625,0.490966796875,42.875,-53.75,-8.5625,35.1875
1177,0.663330078125,-0.126708984375,0.442626953125,43.5625,-52.4375,-22.0625,35.1875
1179,0.6611328125,-0.126708984375,0.442626953125,43.5625,-52.4375,-22.0625,35.1875
1181,0.6611328125,-0.126708984375,0.442626953125,43.5625,-52.4375,-22.0625,35.1875
1183,0.658203125,-0.090087890625,0.39501953125,44.5625,-50.75,-34.125,35.1875
1185,0.658203125,-0.090087890625,0.39501953125,44.5625,-50.75,-34.125,35.1875
1187,0.6640625,-0.06591796875,0.349365234375,46.125,-48.875,-44.25,35.1875
1189,0.6640625,-0.06591796875,0.349365234375,46.125,-48.875,-44.25,35.1875
1191,0.67578125,-0.06201171875,0.310791015625,47.5625,-48.0625,-51.75,35.1875
1193,0.67578125,-0.06201171875,0.310791015625,47.5625,-48.0625,-51.75,35.1875
1195,0.67578125,-0.12451171875,0.27001953125,49.0,-48.1875,-56.25,35.1875
1197,0.69140625,-0.077880859375,0.27001953125,49.0,-48.1875,-56.25,35.1875
1198,0.69140625,-0.077880859375,0.27001953125,49.0,-48.1875,-56.25,35.1875
1201,0.700927734375,-0.104736328125,0.227294921875,50.4375,-48.5625,-58.0,35.1875
1203,0.700927734375,-0.104736328125,0.227294921875,50.4375,-48.5625,-58.0,35.1875
1205,0.700927734375,-0.134521484375,0.2041015625,51.0,-48.875,-57.25,35.1875
1207,0.700927734375,-0.134521484375,0.2041015625,51.0,-48.875,-57.25,35.1875
1209,0.697509765625,-0.163330078125,0.19580078125,50.625,-49.0,-54.625,35.1875
1211,0.697509765625,-0.163330078125,0.19580078125,50.625,-49.0,-54.625,35.1875
1213,0.693115234375,-0.19189453125,0.17626953125,49.0625,-48.9375,-51.1875,35.1875
1215,0.693115234375,-0.19189453125,0.17626953125,49.0625,-48.9375,-51.1875,35.1875
1217,0.693115234375,-0.19189453125,0.17626953125,49.0625,-48.9375,-47.8125,35.1875
1219,0.687744140625,-0.22412109375,0.148681640625,45.8125,-47.875,-47.8125,35.1875
1221,0.687744140625,-0.22412109375,0.148681640625,45.8125,-47.875,-47.8125,35.1875
1223,0.68359375,-0.255859375,0.123291015625,41.9375,-46.0,-45.25,35.1875
1225,0.68359375,-0.255859375,0.123291015625,41.9375,-46.0,-45.25,35.1875
1227,0.68701171875,-0.281982421875,0.0947265625,37.875,-44.0,-43.5,35.1875
1229,0.68701171875,-0.281982421875,0.0947265625,37.875,-44.0,-43.5,35.1875
1231,0.7041015625,-0.29541015625,0.06640625,33.5,-42.375,-42.0,35.1875
1233,0.7041015625,-0.29541015625,0.06640625,33.5,-42.375,-42.0,35.1875
1235,0.733154296875,-0.298095703125,0.048583984375,28.875,-41.3125,-40.875,35.1875
1237,0.733154296875,-0.298095703125,0.048583984375,28.875,-41.3125,-40.875,35.1875
1239,0.733154296875,-0.298095703125,0.048583984375,28.875,-41.3125,-40.875,35.1875
1240,0.764404296875,-0.288330078125,0.04052734375,24.5,-40.0625,-40.75,35.1875
1242,0.764404296875,-0.288330078125,0.04052734375,24.5,-40.0625,-40.75,35.1875
1245,0.80615234375,-0.262451171875,0.03515625,20.8125,-39.1875,-41.875,35.1875
1248,0.80615234375,-0.262451171875,0.03515625,20.8125,-39.1875,-41.875,35.1875
1250,0.868408203125,-0.24365234375,0.00244140625,18.125,-39.0,-44.75,35.1875
1253,0.9287109375,-0.235107421875,-0.052001953125,16.5,-39.875,-48.8125,35.1875
1255,0.9287109375,-0.235107421875,-0.052001953125,16.5,-39.875,-48.8125,35.1875
1257,0.967041015625,-0.229248046875,-0.097412109375,15.375,-41.8125,-53.75,35.19921875
1259,0.967041015625,-0.229248046875,-0.097412109375,15.375,-41.8125,-53.75,35.19921875
1261,0.967041015625,-0.229248046875,-0.097412109375,15.375,-41.8125,-53.75,35.19921875
1263,0.992431640625,-0.21923828125,-0.13232421875,14.625,-44.5,-59.0625,35.19921875
1265,0.992431640625,-0.21923828125,-0.13232421875,14.625,-44.5,-59.0625,35.19921875
1267,1.014892578125,-0.2158203125,-0.167724609375,14.0625,-46.6875,-64.25,35.19921875
1269,1.014892578125,-0.2158203125,-0.167724609375,14.0625,-46.6875,-64.25,35.19921875
1271,1.0224609375,-0.222412109375,-0.20556640625,13.5625,-48.1875,-68.75,35.19921875
1273,1.0224609375,-0.222412109375,-0.20556640625,13.5625,-48.1875,-68.75,35.19921875
1275,1.01416015625,-0.222412109375,-0.2392578125,13.1875,-49.5625,-72.0625,35.19921875
1277,1.01416015625,-0.222412109375,-0.2392578125,13.1875,-49.5625,-72.0625,35.19921875
1279,1.017333984375,-0.213623046875,-0.262451171875,11.9375,-51.5,-74.125,35.19921875
1282,1.017333984375,-0.213623046875,-0.262451171875,11.9375,-51.5,-74.125,35.19921875
1284,1.045654296875,-0.209228515625,-0.2861328125,9.5,-54.3125,-75.25,35.19921875
1286,1.045654296875,-0.209228515625,-0.2861328125,9.5,-54.3125,-75.25,35.19921875
1288,1.080810546875,-0.217529296875,-0.324462890625,6.4375,-57.0,-76.4375,35.19921875
1290,1.080810546875,-0.217529296875,-0.324462890625,6.4375,-57.0,-76.4375,35.19921875
1292,1.080810546875,-0.217529296875,-0.324462890625,6.4375,-57.0,-77.75,35.19921875
1295,1.102294921875,-0.240478515625,-0.380859375,3.0,-59.4375,-77.75,35.19921875
1297,1.102294921875,-0.240478515625,-0.443359375,-0.6875,-60.875,-79.5,35.19921875
1299,1.099365234375,-0.265869140625,-0.449951171875,-0.6875,-60.875,-79.5,35.19921875
1300,1.099365234375,-0.265869140625,-0.449951171875,-0.6875,-60.875,-79.5,35.19921875
1302,1.07421875,-0.28125,-0.523681640625,-5.0625,-61.25,-80.0625,35.19921875
1304,1.07421875,-0.28125,-0.523681640625,-5.0625,-61.25,-80.0625,35.19921875
1306,1.03271484375,-0.280517578125,-0.593505859375,-9.625,-60.625,-79.625,35.19921875
1308,1.03271484375,-0.280517578125,-0.593505859375,-9.625,-60.625,-79.625,35.19921875
1310,0.98583984375,-0.26513671875,-0.650146484375,-14.0625,-58.25,-77.9375,35.19921875
1312,0.98583984375,-0.26513671875,-0.650146484375,-14.0625,-58.25,-77.9375,35.19921875
1314,0.98583984375,-0.26513671875,-0.650146484375,-18.8125,-53.8125,-75.25,35.19921875
1317,0.94189453125,-0.23876953125,-0.702880859375,-18.8125,-53.8125,-75.25,35.19921875
1319,0.94189453125,-0.23876953125,-0.702880859375,-18.8125,-53.8125,-72.4375,35.19921875
1321,0.908447265625,-0.2021484375,-0.745361328125,-23.8125,-47.875,-72.4375,35.19921875
1323,0.908447265625,-0.2021484375,-0.745361328125,-23.8125,-47.875,-72.4375,35.19921875
1325,0.896240234375,-0.15966796875,-0.779541015625,-28.0625,-40.75,-69.8125,35.19921875
1327,0.896240234375,-0.15966796875,-0.779541015625,-28.0625,-40.75,-69.8125,35.19921875
1328,0.910400390625,-0.117919921875,-0.802978515625,-31.8125,-32.6875,-67.4375,35.19921875
1330,0.910400390625,-0.117919921875,-0.802978515625,-31.8125,-32.6875,-67.4375,35.19921875
1332,0.939453125,-0.0830078125,-0.821044921875,-34.1875,-24.4375,-65.75,35.19921875
1334,0.939453125,-0.0830078125,-0.821044921875,-34.1875,-24.4375,-65.75,35.19921875
1337,0.972412109375,-0.053955078125,-0.844970703125,-34.75,-16.1875,-64.6875,35.19921875
1340,0.972412109375,-0.053955078125,-0.844970703125,-34.75,-16.1875,-64.6875,35.19921875
1342,1.00634765625,-0.033203125,-0.86328125,-33.8125,-8.5625,-63.6875,35.19921875
1344,1.00634765625,-0.033203125,-0.86328125,-33.8125,-8.5625,-63.6875,35.19921875
1346,1.04150390625,-0.01318359375,-0.863037109375,-31.9375,-1.9375,-62.625,35.19921875
1348,1.04150390625,-0.01318359375,-0.863037109375,-31.9375,-1.9375,-62.625,35.19921875
1350,1.075439453125,0.00244140625,-0.854736328125,-29.625,3.125,-61.0625,35.19921875
1352,1.075439453125,0.00244140625,-0.854736328125,-29.625,3.125,-61.0625,35.19921875
1354,1.075439453125,0.00244140625,-0.854736328125,-29.625,3.125,-61.0625,35.19921875
1356,1.107421875,0.005615234375,-0.8466796875,-27.4375,6.8125,-58.625,35.19921875
1358,1.107421875,0.005615234375,-0.8466796875,-27.4375,6.8125,-58.625,35.19921875
1360,1.1337890625,0.001953125,-0.84423828125,-25.25,9.5625,-55.8125,35.19921875
1362,1.1337890625,0.001953125,-0.84423828125,-25.25,9.5625,-55.8125,35.19921875
1364,1.147216796875,-0.00439453125,-0.848876953125,-23.125,11.875,-52.5,35.19921875
1366,1.147216796875,-0.00439453125,-0.848876953125,-23.125,11.875,-52.5,35.19921875
1368,1.14990234375,-0.013916015625,-0.855712890625,-21.8125,13.75,-48.8125,35.19921875
1370,1.14990234375,-0.013916015625,-0.855712890625,-21.8125,13.75,-48.8125,35.19921875
1373,1.1474609375,-0.02734375,-0.861328125,-21.75,15.4375,-44.8125,35.19921875
1374,1.1474609375,-0.02734375,-0.861328125,-21.75,15.4375,-44.8125,35.19921875
1376,1.1474609375,-0.040283203125,-0.853759765625,-21.75,17.4375,-40.5,35.19921875
1378,1.154296875,-0.040283203125,-0.853759765625,-21.75,17.4375,-40.5,35.19921875
1380,1.154296875,-0.040283203125,-0.853759765625,-21.75,17.4375,-40.5,35.19921875
1382,1.173095703125,-0.052734375,-0.84326171875,-22.0625,19.6875,-35.6875,35.19921875
1385,1.173095703125,-0.052734375,-0.84326171875,-22.0625,19.6875,-35.6875,35.19921875
1387,1.19775390625,-0.074462890625,-0.840576171875,-22.0625,22.0,-30.6875,35.19921875
1389,1.19775390625,-0.074462890625,-0.840576171875,-22.0625,22.0,-30.6875,35.19921875
1391,1.215087890625,-0.1015625,-0.85205078125,-21.625,23.5,-26.25,35.19921875
1392,1.215087890625,-0.1015625,-0.85205078125,-21.625,23.5,-26.25,35.19921875
1394,1.213623046875,-0.123291015625,-0.865478515625,-20.3125,23.5,-22.375,35.19921875
1396,1.213623046875,-0.123291015625,-0.865478515625,-20.3125,23.5,-22.375,35.19921875
1398,1.213623046875,-0.123291015625,-0.865478515625,-20.3125,23.5,-22.375,35.19921875
1400,1.1923828125,-0.129150390625,-0.87841796875,-18.75,22.75,-19.0625,35.1875
1402,1.1923828125,-0.129150390625,-0.87841796875,-18.75,22.75,-19.0625,35.1875
1404,1.15966796875,-0.12841796875,-0.893798828125,-16.3125,22.0625,-16.375,35.1875
1407,1.15966796875,-0.12841796875,-0.893798828125,-16.3125,22.0625,-16.375,35.1875
1409,1.127197265625,-0.123046875,-0.903564453125,-13.4375,21.5625,-14.5,35.1875
1411,1.127197265625,-0.123046875,-0.903564453125,-13.4375,21.5625,-14.5,35.1875
1413,1.100830078125,-0.11669921875,-0.912353515625,-10.625,21.125,-13.4375,35.1875
1415,1.100830078125,-0.11669921875,-0.912353515625,-10.625,21.125,-13.4375,35.1875
1416,1.077880859375,-0.114013671875,-0.929443359375,-7.8125,21.0,-13.1875,35.1875
1418,1.077880859375,-0.114013671875,-0.929443359375,-7.8125,21.0,-13.1875,35.1875
1420,1.077880859375,-0.114013671875,-0.929443359375,-7.8125,21.0,-13.1875,35.1875
1422,1.05322265625,-0.111083984375,-0.941650390625,-4.625,21.25,-13.625,35.1875
1424,1.05322265625,-0.111083984375,-0.941650390625,-4.625,21.25,-13.625,35.1875
1426,1.030029296875,-0.10595703125,-0.95068359375,-1.0625,22.25,-14.9375,35.1875
1429,1.030029296875,-0.10595703125,-0.95068359375,-1.0625,22.25,-14.9375,35.1875
1431,1.015869140625,-0.10009765625,-0.9609375,2.6875,23.6875,-16.5625,35.1875
1433,1.015869140625,-0.10009765625,-0.9609375,2.6875,23.6875,-16.5625,35.1875
1434,1.0107421875,-0.09765625,-0.974365234375,6.5625,25.25,-18.5,35.1875
1436,1.0107421875,-0.09765625,-0.974365234375,6.5625,25.25,-18.5,35.1875
1438,1.0078125,-0.102783203125,-0.9833984375,11.0625,27.3125,-21.1875,35.1875
1440,1.0078125,-0.102783203125,-0.9833984375,11.0625,27.3125,-21.1875,35.1875
1443,1.0078125,-0.102783203125,-0.9833984375,15.9375,29.875,-23.25,35.1875
1447,1.005615234375,-0.114990234375,-0.981201171875,15.9375,29.875,-23.25,35.1875
1449,1.010986328125,-0.133056640625,-0.958251953125,20.4375,32.4375,-24.125,35.1875
1451,1.010986328125,-0.133056640625,-0.958251953125,20.4375,32.4375,-24.125,35.1875
1453,1.032470703125,-0.1591796875,-0.9306640625,24.3125,34.8125,-23.5,35.1875
1455,1.032470703125,-0.1591796875,-0.9306640625,24.3125,34.8125,-23.5,35.1875
1458,1.0595703125,-0.191650390625,-0.905517578125,27.1875,36.5625,-21.125,35.1875
1460,1.0595703125,-0.191650390625,-0.905517578125,27.1875,36.5625,-21.125,35.1875
1461,1.082275390625,-0.226806640625,-0.884521484375,28.9375,37.0625,-17.1875,35.1875
1464,1.082275390625,-0.226806640625,-0.884521484375,28.9375,37.0625,-17.1875,35.1875
1465,1.10107421875,-0.2626953125,-0.85986328125,29.1875,35.875,-12.0625,35.1875
1468,1.10107421875,-0.2626953125,-0.85986328125,29.1875,35.875,-12.0625,35.1875
1470,1.115234375,-0.299072265625,-0.83544921875,28.375,33.8125,-5.625,35.1875
1472,1.115234375,-0.299072265625,-0.83544921875,28.375,33.8125,-5.625,35.1875
1474,1.115234375,-0.299072265625,-0.83544921875,28.375,31.75,1.4375,35.1875
1476,1.1337890625,-0.3349609375,-0.820556640625,26.4375,31.75,1.4375,35.1875
1478,1.149169921875,-0.370849609375,-0.808349609375,23.75,29.125,9.0,35.1875
1480,1.149169921875,-0.370849609375,-0.808349609375,23.75,29.125,9.0,35.1875
1482,1.149169921875,-0.370849609375,-0.808349609375,23.75,29.125,9.0,35.1875
1484,1.16259765625,-0.40380859375,-0.802978515625,20.375,26.6875,16.625,35.1875
1486,1.16259765625,-0.40380859375,-0.802978515625,20.375,26.6875,16.625,35.1875
1489,1.175048828125,-0.429443359375,-0.78759765625,16.6875,24.375,23.75,35.1875
1491,1.175048828125,-0.429443359375,-0.78759765625,16.6875,24.375,23.75,35.1875
1493,1.187255859375,-0.446533203125,-0.763427734375,12.625,22.1875,30.0,35.1875
1494,1.187255859375,-0.446533203125,-0.763427734375,12.625,22.1875,30.0,35.1875
1496,1.200927734375,-0.45654296875,-0.73828125,8.75,20.125,34.6875,35.1875
1498,1.200927734375,-0.45654296875,-0.73828125,8.75,20.125,34.6875,35.1875
1500,1.200927734375,-0.45654296875,-0.73828125,5.25,18.0625,37.625,35.1875
1503,1.219482421875,-0.458740234375,-0.7138671875,5.25,18.0625,37.625,35.1875
1505,1.219482421875,-0.458740234375,-0.7138671875,5.25,18.0625,37.625,35.1875
1507,1.240966796875,-0.44970703125,-0.69384765625,2.375,16.0625,37.875,35.1875
1509,1.240966796875,-0.44970703125,-0.69384765625,2.375,16.0625,37.875,35.1875
1510,1.260009765625,-0.4306640625,-0.6806640625,0.0,14.6875,36.0,35.1875
1513,1.260009765625,-0.4306640625,-0.6806640625,0.0,14.6875,36.0,35.1875
1515,1.275390625,-0.39990234375,-0.669921875,-1.0625,14.0625,32.0,35.1875
1516,1.275390625,-0.39990234375,-0.669921875,-1.0625,14.0625,32.0,35.1875
1518,1.294921875,-0.35888671875,-0.653564453125,-0.75,13.9375,27.1875,35.1875
1520,1.294921875,-0.35888671875,-0.653564453125,-0.75,13.9375,27.1875,35.1875
1522,1.294921875,-0.35888671875,-0.653564453125,-0.75,13.9375,27.1875,35.1875
1524,1.319580078125,-0.31396484375,-0.631591796875,0.8125,13.5,22.5,35.1875
1527,1.319580078125,-0.31396484375,-0.631591796875,0.8125,12.5625,18.25,35.1875
1529,1.34521484375,-0.2744140625,-0.6044921875,2.25,12.5625,18.25,35.1875
1531,1.34521484375,-0.2744140625,-0.6044921875,2.25,12.5625,18.25,35.1875
1533,1.3779296875,-0.240966796875,-0.5703125,3.6875,11.0625,14.3125,35.1875
1535,1.3779296875,-0.240966796875,-0.5703125,3.6875,11.0625,14.3125,35.1875
1537,1.41455078125,-0.21875,-0.541748046875,4.75,8.4375,10.4375,35.1875
1538,1.41455078125,-0.21875,-0.541748046875,4.75,8.4375,10.4375,35.1875
1540,1.45361328125,-0.20263671875,-0.52587890625,5.3125,4.75,7.0625,35.1640625
1542,1.45361328125,-0.20263671875,-0.52587890625,5.3125,4.75,7.0625,35.1640625
1544,1.45361328125,-0.20263671875,-0.52587890625,5.3125,4.75,7.0625,35.1640625
1546,1.489990234375,-0.18603515625,-0.51513671875,5.5625,-0.1875,4.5,35.1640625
1549,1.489990234375,-0.18603515625,-0.51513671875,5.5625,-0.1875,4.5,35.1640625
1551,1.519287109375,-0.1630859375,-0.510986328125,5.625,-6.125,3.0625,35.1640625
1553,1.519287109375,-0.1630859375,-0.510986328125,5.625,-6.125,3.0625,35.1640625
1555,1.53564453125,-0.13671875,-0.507568359375,5.5625,-11.875,2.6875,35.1640625
1557,1.53564453125,-0.13671875,-0.507568359375,5.5625,-11.875,2.6875,35.1640625
1559,1.540771484375,-0.112548828125,-0.504638671875,5.25,-17.1875,3.8125,35.1640625
1561,1.540771484375,-0.112548828125,-0.504638671875,5.25,-17.1875,3.8125,35.1640625
1563,1.5419921875,-0.092529296875,-0.505859375,4.875,-22.4375,6.125,35.1640625
1565,1.5419921875,-0.092529296875,-0.505859375,4.875,-22.4375,6.125,35.1640625
1567,1.5419921875,-0.092529296875,-0.505859375,4.875,-22.4375,6.125,35.1640625
1569,1.54296875,-0.079833984375,-0.513916015625,4.375,-27.625,9.375,35.1640625
1570,1.54296875,-0.079833984375,-0.513916015625,4.375,-27.625,9.375,35.1640625
1573,1.541748046875,-0.07666015625,-0.5361328125,3.0,-32.4375,13.9375,35.1640625
1575,1.541748046875,-0.07666015625,-0.5361328125,3.0,-32.4375,13.9375,35.1640625
1577,1.52685546875,-0.08642578125,-0.568603515625,0.6875,-36.375,19.9375,35.1640625
1579,1.52685546875,-0.08642578125,-0.568603515625,0.6875,-36.375,19.9375,35.1640625
1581,1.49658203125,-0.1044921875,-0.606201171875,-2.0,-38.875,27.4375,35.1640625
1583,1.49658203125,-0.1044921875,-0.606201171875,-2.0,-38.875,27.4375,35.1640625
1585,1.4619140625,-0.127197265625,-0.63623046875,-5.0625,-40.375,35.9375,35.1640625
1587,1.4619140625,-0.127197265625,-0.63623046875,-5.0625,-40.375,35.9375,35.1640625
1589,1.4619140625,-0.127197265625,-0.63623046875,-5.0625,-40.375,35.9375,35.1640625
1591,1.431884765625,-0.1484375,-0.661376953125,-8.3125,-40.8125,44.8125,35.1640625
1592,1.431884765625,-0.1484375,-0.661376953125,-8.3125,-40.8125,44.8125,35.1640625
1595,1.4111328125,-0.16357421875,-0.682861328125,-11.625,-40.75,53.8125,35.1640625
1597,1.4111328125,-0.16357421875,-0.682861328125,-11.625,-40.75,53.8125,35.1640625
1599,1.40283203125,-0.17431640625,-0.701171875,-14.5625,-41.125,61.875,35.1640625
1601,1.40283203125,-0.17431640625,-0.701171875,-14.5625,-41.125,61.875,35.1640625
1603,1.39306640625,-0.181396484375,-0.712158203125,-16.375,-42.1875,68.6875,35.1640625
1605,1.39306640625,-0.181396484375,-0.712158203125,-16.375,-42.1875,68.6875,35.1640625
1607,1.39306640625,-0.18212890625,-0.723388671875,-16.875,-43.3125,73.6875,35.1640625
1609,1.3818359375,-0.18212890625,-0.723388671875,-16.875,-43.3125,73.6875,35.1640625
1611,1.3818359375,-0.18212890625,-0.723388671875,-16.875,-43.3125,73.6875,35.1640625
1613,1.363525390625,-0.185791015625,-0.74169921875,-16.5,-43.75,77.25,35.1640625
1615,1.363525390625,-0.185791015625,-0.74169921875,-16.5,-43.75,77.25,35.1640625
1617,1.336669921875,-0.1923828125,-0.763427734375,-16.0,-43.5625,79.5625,35.1640625
1620,1.31201171875,-0.204833984375,-0.783447265625,-16.1875,-43.0,81.25,35.1640625
1622,1.31201171875,-0.204833984375,-0.783447265625,-16.1875,-43.0,81.25,35.1640625
1624,1.31201171875,-0.204833984375,-0.80029296875,-17.3125,-42.0,82.8125,35.1640625
1626,1.297607421875,-0.226806640625,-0.80029296875,-17.3125,-42.0,82.8125,35.1640625
1628,1.297607421875,-0.226806640625,-0.80029296875,-17.3125,-42.0,82.8125,35.1640625
1630,1.294189453125,-0.256591796875,-0.82373046875,-18.875,-41.375,84.625,35.1640625
1633,1.294189453125,-0.256591796875,-0.82373046875,-18.875,-41.375,84.625,35.1640625
1634,1.288818359375,-0.28857421875,-0.86279296875,-21.3125,-41.5,86.5625,35.1640625
1636,1.288818359375,-0.28857421875,-0.86279296875,-21.3125,-41.5,86.5625,35.1640625
1638,1.27490234375,-0.313720703125,-0.907958984375,-24.75,-42.5,88.75,35.1640625
1643,1.27490234375,-0.313720703125,-0.907958984375,-24.75,-42.5,88.75,35.1640625
1645,1.255859375,-0.337890625,-0.956298828125,-29.25,-44.1875,90.125,35.1640625
1647,1.23779296875,-0.345458984375,-1.0,-34.25,-47.375,90.0,35.1640625
1649,1.23779296875,-0.345458984375,-1.0,-34.25,-47.375,90.0,35.1640625
1651,1.23779296875,-0.345458984375,-1.0,-34.25,-47.375,90.0,35.1640625
1653,1.223388671875,-0.337890625,-1.032470703125,-39.6875,-51.75,87.9375,35.1640625
1656,1.211181640625,-0.318603515625,-1.0556640625,-44.5625,-56.0,83.375,35.1640625
1658,1.211181640625,-0.318603515625,-1.0556640625,-44.5625,-56.0,83.375,35.1640625
1660,1.197998046875,-0.2890625,-1.07177734375,-48.0,-60.125,77.0625,35.1640625
1662,1.197998046875,-0.2890625,-1.07177734375,-48.0,-60.125,77.0625,35.1640625
1664,1.197998046875,-0.2890625,-1.07177734375,-48.0,-60.125,77.0625,35.1640625
1666,1.171875,-0.239501953125,-1.072021484375,-49.5625,-64.8125,69.375,35.1640625
1669,1.171875,-0.239501953125,-1.072021484375,-49.5625,-64.8125,60.875,35.1640625
1670,1.142822265625,-0.17236328125,-1.053955078125,-49.4375,-69.9375,60.875,35.1640625
1672,1.142822265625,-0.17236328125,-1.053955078125,-49.4375,-69.9375,60.875,35.1640625
1674,1.115234375,-0.106689453125,-1.039306640625,-47.5,-74.3125,51.75,35.1640625
1676,1.115234375,-0.106689453125,-1.039306640625,-47.5,-74.3125,51.75,35.1640625
1678,1.072998046875,-0.051025390625,-1.030029296875,-44.125,-75.375,43.125,35.1640625
1681,1.072998046875,-0.051025390625,-1.030029296875,-44.125,-75.375,43.125,35.1640625
1683,1.010986328125,-0.00439453125,-1.004150390625,-39.4375,-72.6875,35.9375,35.18359375
1685,1.010986328125,-0.00439453125,-1.004150390625,-39.4375,-72.6875,35.9375,35.18359375
1686,0.952880859375,0.031982421875,-0.966796875,-33.6875,-66.875,30.4375,35.18359375
1689,0.952880859375,0.031982421875,-0.966796875,-33.6875,-66.875,30.4375,35.18359375
1692,0.917236328125,0.05078125,-0.93408203125,-28.5,-58.875,27.1875,35.18359375
1694,0.917236328125,0.05078125,-0.93408203125,-28.5,-58.875,27.1875,35.18359375
1696,0.893310546875,0.05126953125,-0.910400390625,-23.875,-49.75,25.5,35.18359375
1699,0.893310546875,0.05126953125,-0.910400390625,-23.875,-49.75,25.5,35.18359375
1701,0.876708984375,0.038818359375,-0.888671875,-19.625,-40.6875,25.625,35.18359375
1703,0.876708984375,0.038818359375,-0.888671875,-19.625,-40.6875,25.625,35.18359375
1705,0.85595703125,0.01904296875,-0.860595703125,-15.6875,-31.1875,27.4375,35.18359375
1706,0.85595703125,0.01904296875,-0.860595703125,-15.6875,-31.1875,27.4375,35.18359375
1709,0.85595703125,0.01904296875,-0.82568359375,-12.375,-21.75,30.75,35.18359375
1710,0.8291015625,0.00146484375,-0.82568359375,-12.375,-21.75,30.75,35.18359375
1713,0.8291015625,0.00146484375,-0.82568359375,-12.375,-21.75,30.75,35.18359375
1715,0.790771484375,-0.010986328125,-0.79638671875,-10.125,-12.9375,35.25,35.18359375
1717,0.790771484375,-0.010986328125,-0.79638671875,-10.125,-12.9375,35.25,35.18359375
1719,0.74755859375,-0.01953125,-0.76220703125,-8.5625,-5.0,40.5,35.18359375
1721,0.74755859375,-0.01953125,-0.76220703125,-8.5625,-5.0,40.5,35.18359375
1723,0.70947265625,-0.019287109375,-0.71923828125,-8.125,2.125,46.0,35.18359375
1726,0.70947265625,-0.019287109375,-0.71923828125,-8.125,2.125,46.0,35.18359375
1728,0.684326171875,-0.0166015625,-0.663330078125,-8.6875,7.8125,51.5625,35.18359375
1730,0.684326171875,-0.0166015625,-0.663330078125,-8.6875,7.8125,51.5625,35.18359375
1732,0.689697265625,-0.02978515625,-0.5986328125,-9.8125,10.75,58.0,35.18359375
1734,0.689697265625,-0.02978515625,-0.5986328125,-9.8125,10.75,58.0,35.18359375
1736,0.723876953125,-0.05810546875,-0.53076171875,-11.375,11.1875,64.25,35.18359375
1738,0.723876953125,-0.05810546875,-0.53076171875,-11.375,11.1875,64.25,35.18359375
1740,0.77099609375,-0.109619140625,-0.468505859375,-12.625,8.8125,69.1875,35.18359375
1742,0.77099609375,-0.109619140625,-0.468505859375,-12.625,8.8125,69.1875,35.18359375
1744,0.809326171875,-0.186279296875,-0.409912109375,-13.5625,4.125,72.3125,35.18359375
1746,0.809326171875,-0.186279296875,-0.409912109375,-13.5625,4.125,72.3125,35.18359375
1748,0.809326171875,-0.186279296875,-0.409912109375,-13.5625,4.125,72.3125,35.18359375
1750,0.81689453125,-0.27001953125,-0.358154296875,-14.0625,-2.4375,73.5625,35.18359375
1752,0.81689453125,-0.27001953125,-0.358154296875,-14.0625,-2.4375,73.5625,35.18359375
1754,0.791259765625,-0.3388671875,-0.31640625,-15.0,-10.125,73.1875,35.18359375
1756,0.791259765625,-0.3388671875,-0.31640625,-15.0,-10.125,73.1875,35.18359375
1758,0.73583984375,-0.395263671875,-0.279296875,-17.5625,-17.25,72.125,35.18359375
1761,0.73583984375,-0.395263671875,-0.279296875,-17.5625,-17.25,72.125,35.18359375
1764,0.66943359375,-0.443359375,-0.261474609375,-21.5,-23.1875,71.1875,35.18359375
1766,0.66943359375,-0.443359375,-0.261474609375,-21.5,-23.1875,71.1875,35.18359375
1768,0.601806640625,-0.485107421875,-0.258056640625,-26.125,-27.0625,70.125,35.18359375
1770,0.601806640625,-0.485107421875,-0.258056640625,-26.125,-27.0625,70.125,35.18359375
1772,0.53076171875,-0.51708984375,-0.260986328125,-31.625,-28.625,69.25,35.18359375
1774,0.53076171875,-0.51708984375,-0.260986328125,-31.625,-28.625,69.25,35.18359375
1776,0.44140625,-0.536865234375,-0.264404296875,-36.6875,-28.0,68.0,35.18359375
1778,0.44140625,-0.536865234375,-0.264404296875,-36.6875,-28.0,68.0,35.18359375
1780,0.3388671875,-0.540283203125,-0.2587890625,-40.875,-24.6875,66.4375,35.18359375
1782,0.3388671875,-0.540283203125,-0.2587890625,-40.875,-24.6875,66.4375,35.18359375
1784,0.236328125,-0.537353515625,-0.24951171875,-45.0,-18.125,64.3125,35.18359375
1786,0.236328125,-0.537353515625,-0.24951171875,-45.0,-18.125,64.3125,35.18359375
1788,0.236328125,-0.537353515625,-0.24951171875,-45.0,-18.125,64.3125,35.18359375
1790,0.14208984375,-0.534423828125,-0.24169921875,-48.75,-7.875,61.875,35.18359375
1792,0.14208984375,-0.534423828125,-0.24169921875,-48.75,-7.875,61.875,35.18359375
1794,0.058349609375,-0.529541015625,-0.23779296875,-52.5,5.3125,59.8125,35.18359375
1796,0.058349609375,-0.529541015625,-0.23779296875,-52.5,5.3125,59.8125,35.18359375
1798,-0.00732421875,-0.51708984375,-0.236572265625,-56.6875,21.25,58.375,35.18359375
1800,-0.00732421875,-0.51708984375,-0.236572265625,-56.6875,21.25,58.375,35.18359375
1802,-0.0576171875,-0.492919921875,-0.21875,-60.5,38.4375,57.8125,35.18359375
1804,-0.0576171875,-0.492919921875,-0.21875,-60.5,38.4375,57.8125,35.18359375
1807,-0.095703125,-0.444580078125,-0.168212890625,-63.4375,55.3125,57.75,35.18359375
1809,-0.095703125,-0.444580078125,-0.168212890625,-63.4375,55.3125,57.75,35.18359375
1810,-0.095703125,-0.37890625,-0.08203125,-65.9375,69.75,58.3125,35.18359375
1812,-0.093017578125,-0.37890625,-0.08203125,-65.9375,69.75,58.3125,35.18359375
1814,-0.093017578125,-0.37890625,-0.08203125,-65.9375,69.75,58.3125,35.18359375
1816,-0.031494140625,-0.327880859375,0.024658203125,-67.6875,80.5625,58.875,35.18359375
1818,-0.031494140625,-0.327880859375,0.024658203125,-67.6875,80.5625,58.875,35.18359375
1820,0.07373046875,-0.2978515625,0.12939453125,-66.75,87.6875,57.5,35.18359375
1822,0.07373046875,-0.2978515625,0.12939453125,-66.75,87.6875,57.5,35.18359375
1824,0.1923828125,-0.27490234375,0.227783203125,-62.625,91.125,53.375,35.171875
1826,0.1923828125,-0.27490234375,0.227783203125,-62.625,91.125,53.375,35.171875
1829,0.293701171875,-0.255126953125,0.323974609375,-55.625,91.0,45.3125,35.171875
1832,0.293701171875,-0.255126953125,0.323974609375,-55.625,91.0,45.3125,35.171875
1836,0.374755859375,-0.234375,0.40771484375,-46.25,87.75,33.375,35.171875
1838,0.423095703125,-0.209228515625,0.484130859375,-35.1875,83.375,18.0625,35.171875
1840,0.423095703125,-0.209228515625,0.484130859375,-35.1875,83.375,18.0625,35.171875
1842,0.4423828125,-0.19287109375,0.55078125,-23.375,78.5625,-0.375,35.171875
1844,0.4423828125,-0.19287109375,0.55078125,-23.375,78.5625,-0.375,35.171875
1846,0.4423828125,-0.19287109375,0.55078125,-23.375,78.5625,-0.375,35.171875
1848,0.43359375,-0.193603515625,0.61181640625,-11.625,74.875,-21.6875,35.171875
1850,0.43359375,-0.193603515625,0.61181640625,-11.625,74.875,-21.6875,35.171875
1852,0.399169921875,-0.212890625,0.67333984375,-2.375,74.0625,-44.9375,35.171875
1854,0.399169921875,-0.212890625,0.67333984375,-2.375,74.0625,-44.9375,35.171875
1857,0.3466796875,-0.23876953125,0.74169921875,1.625,77.5,-67.5625,35.171875
1858,0.3466796875,-0.23876953125,0.74169921875,1.625,77.5,-67.5625,35.171875
1860,0.297119140625,-0.240478515625,0.794921875,0.0625,85.5,-86.0625,35.171875
1862,0.297119140625,-0.240478515625,0.794921875,0.0625,85.5,-86.0625,35.171875
1864,0.2646484375,-0.20751953125,0.831298828125,-6.875,96.9375,-97.375,35.171875
1867,0.2646484375,-0.20751953125,0.831298828125,-6.875,96.9375,-97.375,35.171875
1869,0.257080078125,-0.1513671875,0.857666015625,-17.6875,109.4375,-99.6875,35.171875
1871,0.257080078125,-0.1513671875,0.857666015625,-17.6875,109.4375,-99.6875,35.171875
1873,0.282470703125,-0.08740234375,0.876953125,-28.75,121.3125,-92.75,35.171875
1875,0.282470703125,-0.08740234375,0.876953125,-28.75,121.3125,-92.75,35.171875
1877,0.331298828125,-0.015625,0.896240234375,-37.3125,131.9375,-78.1875,35.171875
1879,0.331298828125,-0.015625,0.896240234375,-37.3125,131.9375,-78.1875,35.171875
1881,0.331298828125,0.0703125,0.94091796875,-43.3125,141.0625,-57.625,35.171875
1883,0.393798828125,0.0703125,0.94091796875,-43.3125,141.0625,-57.625,35.171875
1885,0.393798828125,0.0703125,0.94091796875,-43.3125,141.0625,-57.625,35.171875
1887,0.4716796875,0.14794921875,1.00341796875,-47.3125,148.375,-32.625,35.171875
1889,0.4716796875,0.14794921875,1.00341796875,-47.3125,148.375,-32.625,35.171875
1891,0.566650390625,0.191650390625,1.06298828125,-49.25,153.6875,-5.8125,35.171875
1893,0.566650390625,0.191650390625,1.06298828125,-49.25,153.6875,-5.8125,35.171875
1895,0.66259765625,0.182373046875,1.112548828125,-48.6875,157.6875,19.6875,35.171875
1897,0.66259765625,0.182373046875,1.112548828125,-48.6875,157.6875,19.6875,35.171875
1899,0.744140625,0.136962890625,1.14990234375,-45.9375,160.125,41.875,35.171875
1902,0.744140625,0.136962890625,1.14990234375,-45.9375,160.125,41.875,35.171875
1905,0.796630859375,0.083740234375,1.168701171875,-42.0625,161.25,59.4375,35.171875
1907,0.796630859375,0.083740234375,1.168701171875,-42.0625,161.25,59.4375,35.171875
1909,0.816650390625,0.034912109375,1.181396484375,-37.8125,160.375,72.4375,35.171875
1911,0.816650390625,0.034912109375,1.181396484375,-37.8125,160.375,72.4375,35.171875
1913,0.82861328125,-0.011962890625,1.190185546875,-33.5625,156.75,80.8125,35.171875
1915,0.82861328125,-0.011962890625,1.190185546875,-33.5625,156.75,80.8125,35.171875
1917,0.8544921875,-0.081298828125,1.180908203125,-29.9375,151.5,84.4375,35.171875
1919,0.8544921875,-0.081298828125,1.180908203125,-29.9375,151.5,84.4375,35.171875
1921,0.8544921875,-0.143798828125,1.16357421875,-27.875,146.5,82.4375,35.171875
1923,0.886474609375,-0.185302734375,1.16357421875,-27.875,146.5,82.4375,35.171875
1926,0.9052734375,-0.304443359375,1.127685546875,-26.4375,141.875,75.0,35.171875
1928,0.9052734375,-0.304443359375,1.127685546875,-26.4375,141.875,75.0,35.171875
1930,0.9052734375,-0.304443359375,1.127685546875,-26.4375,141.875,75.0,35.171875
1932,0.89501953125,-0.400390625,1.073486328125,-26.0,138.3125,64.375,35.171875
1934,0.89501953125,-0.400390625,1.073486328125,-26.0,138.3125,64.375,35.171875
1936,0.87109375,-0.448974609375,1.02294921875,-27.1875,134.9375,52.75,35.171875
1938,0.87109375,-0.448974609375,1.02294921875,-27.1875,134.9375,52.75,35.171875
1940,0.859130859375,-0.443603515625,0.982666015625,-30.125,131.0625,40.875,35.171875
1942,0.859130859375,-0.443603515625,0.982666015625,-30.125,131.0625,40.875,35.171875
1944,0.867431640625,-0.39306640625,0.944091796875,-33.625,126.75,29.6875,35.171875
1946,0.867431640625,-0.39306640625,0.944091796875,-33.625,126.75,29.6875,35.171875
1948,0.88818359375,-0.3095703125,0.907470703125,-35.9375,122.0,20.1875,35.171875
1950,0.88818359375,-0.3095703125,0.907470703125,-35.9375,122.0,20.1875,35.171875
1952,0.90625,-0.2109375,0.859619140625,-35.5,116.625,12.8125,35.171875
1954,0.90625,-0.2109375,0.859619140625,-35.5,116.625,12.8125,35.171875
1956,0.90625,-0.2109375,0.859619140625,-35.5,116.625,12.8125,35.171875
1958,0.906005859375,-0.12841796875,0.798828125,-33.3125,111.625,7.0,35.171875
1960,0.906005859375,-0.12841796875,0.798828125,-33.3125,111.625,7.0,35.171875
1962,0.89013671875,-0.072265625,0.7412109375,-29.5,107.0625,1.9375,35.171875
1964,0.89013671875,-0.072265625,0.7412109375,-29.5,107.0625,1.9375,35.171875
1966,0.865478515625,-0.034423828125,0.6953125,-24.3125,103.6875,-1.9375,35.18359375
1968,0.865478515625,-0.034423828125,0.6953125,-24.3125,103.6875,-1.9375,35.18359375
1970,0.865478515625,-0.034423828125,0.6953125,-24.3125,101.75,-3.1875,35.18359375
1973,0.8359375,-0.015869140625,0.6591796875,-18.5625,101.75,-3.1875,35.18359375
1975,0.80908203125,-0.015625,0.64208984375,-13.5,100.5,-1.4375,35.18359375
1977,0.80908203125,-0.015625,0.64208984375,-13.5,100.5,-1.4375,35.18359375
1978,0.80908203125,-0.015625,0.64208984375,-13.5,100.5,-1.4375,35.18359375
1980,0.801025390625,-0.0283203125,0.639892578125,-10.0,98.8125,2.375,35.18359375
1982,0.801025390625,-0.0283203125,0.639892578125,-10.0,98.8125,2.375,35.18359375
1984,0.81884765625,-0.05078125,0.646240234375,-7.75,95.8125,6.6875,35.18359375
1986,0.81884765625,-0.05078125,0.646240234375,-7.75,95.8125,6.6875,35.18359375
1988,0.8623046875,-0.081298828125,0.66015625,-5.75,90.9375,9.875,35.18359375
1990,0.8623046875,-0.081298828125,0.66015625,-5.75,90.9375,9.875,35.18359375
1992,0.917236328125,-0.115478515625,0.67041015625,-3.375,84.3125,10.6875,35.18359375
1994,0.917236328125,-0.115478515625,0.67041015625,-3.375,84.3125,10.6875,35.18359375
1997,0.966796875,-0.146240234375,0.677001953125,-0.25,77.0,9.1875,35.18359375
1999,0.966796875,-0.146240234375,0.677001953125,-0.25,77.0,9.1875,35.18359375
2000,0.966796875,-0.146240234375,0.677001953125,-0.25,77.0,9.1875,35.18359375
2002,1.0048828125,-0.164306640625,0.684326171875,3.5625,68.8125,5.6875,35.18359375
2004,1.0048828125,-0.164306640625,0.684326171875,3.5625,68.8125,5.6875,35.18359375
2006,1.031982421875,-0.174560546875,0.68310546875,7.5625,60.1875,0.6875,35.18359375
2008,1.031982421875,-0.174560546875,0.68310546875,7.5625,60.1875,0.6875,35.18359375
2010,1.048095703125,-0.189697265625,0.673095703125,11.375,51.0,-4.9375,35.18359375
2012,1.048095703125,-0.189697265625,0.673095703125,11.375,51.0,-4.9375,35.18359375
2014,1.048095703125,-0.189697265625,0.673095703125,15.25,42.625,-11.0625,35.18359375
2016,1.051513671875,-0.212158203125,0.659912109375,15.25,42.625,-11.0625,35.18359375
2018,1.051513671875,-0.212158203125,0.659912109375,15.25,42.625,-16.875,35.18359375
2021,1.040771484375,-0.232177734375,0.645751953125,18.5625,35.0,-16.875,35.18359375
2022,1.040771484375,-0.232177734375,0.645751953125,18.5625,35.0,-16.875,35.18359375
2024,1.0205078125,-0.246337890625,0.622802734375,20.5625,28.3125,-21.4375,35.18359375
2027,1.0205078125,-0.246337890625,0.622802734375,20.5625,28.3125,-21.4375,35.18359375
2029,0.994873046875,-0.264404296875,0.599365234375,21.25,22.3125,-24.875,35.18359375
2030,0.994873046875,-0.264404296875,0.599365234375,21.25,22.3125,-24.875,35.18359375
2032,0.9697265625,-0.288330078125,0.572021484375,20.375,16.9375,-26.9375,35.18359375
2034,0.9697265625,-0.288330078125,0.572021484375,20.375,16.9375,-26.9375,35.18359375
2036,0.9697265625,-0.2978515625,0.537841796875,18.9375,12.125,-27.75,35.18359375
2038,0.95751953125,-0.2978515625,0.537841796875,18.9375,12.125,-27.75,35.18359375
2041,0.94970703125,-0.29833984375,0.500732421875,17.5625,7.25,-27.4375,35.18359375
2043,0.94970703125,-0.29833984375,0.500732421875,17.5625,7.25,-27.4375,35.18359375
2045,0.94970703125,-0.29833984375,0.500732421875,17.5625,7.25,-27.4375,35.18359375
2047,0.9384765625,-0.298095703125,0.4658203125,16.5,2.625,-26.3125,35.18359375
2049,0.9384765625,-0.298095703125,0.4658203125,16.5,2.625,-26.3125,35.18359375
2051,0.92236328125,-0.2958984375,0.435302734375,16.3125,-1.6875,-24.8125,35.18359375
2053,0.92236328125,-0.2958984375,0.435302734375,16.3125,-1.6875,-24.8125,35.18359375
2054,0.900146484375,-0.286376953125,0.403564453125,16.9375,-5.0,-23.1875,35.18359375
2056,0.900146484375,-0.286376953125,0.403564453125,16.9375,-5.0,-23.1875,35.18359375
2058,0.900146484375,-0.286376953125,0.403564453125,16.9375,-5.0,-23.1875,35.18359375
2060,0.87548828125,-0.278076171875,0.377685546875,18.3125,-7.9375,-21.6875,35.18359375
2063,0.87548828125,-0.278076171875,0.377685546875,18.3125,-7.9375,-21.6875,35.18359375
2065,0.854736328125,-0.271728515625,0.360107421875,19.75,-10.8125,-20.3125,35.18359375
2066,0.854736328125,-0.271728515625,0.360107421875,19.75,-10.8125,-20.3125,35.18359375
2068,0.830078125,-0.270263671875,0.3466796875,21.0625,-13.0,-19.3125,35.18359375
2070,0.830078125,-0.270263671875,0.3466796875,21.0625,-13.0,-19.3125,35.18359375
2072,0.8037109375,-0.2734375,0.3388671875,22.4375,-14.5625,-18.25,35.18359375
2074,0.8037109375,-0.2734375,0.3388671875,22.4375,-14.5625,-18.25,35.18359375
2076,0.8037109375,-0.2734375,0.3388671875,23.6875,-15.375,-17.0625,35.18359375
2078,0.77734375,-0.278076171875,0.329833984375,23.6875,-15.375,-17.0625,35.18359375
2080,0.77734375,-0.278076171875,0.329833984375,23.6875,-15.375,-17.0625,35.18359375
2083,0.75537109375,-0.282958984375,0.322265625,24.625,-15.8125,-15.9375,35.18359375
2086,0.736328125,-0.283447265625,0.314208984375,24.8125,-16.25,-14.625,35.18359375
2088,0.736328125,-0.283447265625,0.314208984375,24.8125,-16.25,-14.625,35.18359375
2090,0.726318359375,-0.280029296875,0.308837890625,25.0625,-17.0,-13.1875,35.18359375
2092,0.726318359375,-0.280029296875,0.308837890625,25.0625,-17.0,-13.1875,35.18359375
2094,0.726318359375,-0.280029296875,0.308837890625,25.0625,-17.0,-13.1875,35.18359375
2096,0.726806640625,-0.276123046875,0.315673828125,25.25,-18.125,-11.5625,35.18359375
2098,0.726806640625,-0.276123046875,0.315673828125,25.25,-18.125,-11.5625,35.18359375
2100,0.74072265625,-0.276611328125,0.335205078125,25.5625,-19.8125,-9.8125,35.18359375
2102,0.74072265625,-0.276611328125,0.335205078125,25.5625,-19.8125,-9.8125,35.18359375
2104,0.76220703125,-0.2861328125,0.352294921875,26.0,-21.875,-8.25,35.18359375
2106,0.76220703125,-0.2861328125,0.352294921875,26.0,-21.875,-8.25,35.18359375
2109,0.77880859375,-0.298828125,0.3681640625,26.375,-23.3125,-7.1875,35.18359375
2111,0.77880859375,-0.298828125,0.3681640625,26.375,-23.3125,-7.1875,35.18359375
2113,0.783447265625,-0.3193359375,0.384033203125,26.75,-24.625,-6.3125,35.18359375
2115,0.783447265625,-0.3193359375,0.384033203125,26.75,-24.625,-6.3125,35.18359375
2117,0.780029296875,-0.345458984375,0.398681640625,27.0625,-26.5,-5.625,35.18359375
2119,0.780029296875,-0.345458984375,0.398681640625,27.0625,-26.5,-5.625,35.18359375
2121,0.775634765625,-0.373291015625,0.41064453125,26.8125,-28.3125,-4.8125,35.18359375
2123,0.775634765625,-0.373291015625,0.41064453125,26.8125,-28.3125,-4.8125,35.18359375
2124,0.775634765625,-0.373291015625,0.41064453125,26.8125,-28.3125,-4.8125,35.18359375
2127,0.77490234375,-0.40478515625,0.429443359375,26.0625,-29.5625,-4.3125,35.18359375
2129,0.77490234375,-0.40478515625,0.429443359375,26.0625,-29.5625,-4.3125,35.18359375
2131,0.775390625,-0.439697265625,0.451171875,24.875,-30.5,-4.625,35.18359375
2133,0.775390625,-0.439697265625,0.451171875,24.875,-30.5,-4.625,35.18359375
2135,0.7744140625,-0.4697265625,0.476318359375,22.8125,-31.0,-5.75,35.18359375
2138,0.77490234375,-0.486083984375,0.50537109375,20.25,-31.6875,-7.875,35.18359375
2140,0.77490234375,-0.486083984375,0.50537109375,20.25,-31.6875,-7.875,35.18359375
2142,0.77490234375,-0.486083984375,0.50537109375,20.25,-31.6875,-7.875,35.18359375
2144,0.782470703125,-0.482177734375,0.5380859375,17.625,-32.8125,-10.9375,35.18359375
2146,0.782470703125,-0.482177734375,0.5380859375,17.625,-32.8125,-10.9375,35.18359375
2148,0.80322265625,-0.46044921875,0.5712890625,15.25,-35.0,-15.0625,35.18359375
2150,0.80322265625,-0.46044921875,0.5712890625,15.25,-35.0,-15.0625,35.18359375
2152,0.83251953125,-0.4228515625,0.60107421875,13.5,-37.75,-20.4375,35.18359375
2155,0.83251953125,-0.4228515625,0.60107421875,13.5,-37.75,-20.4375,35.18359375
2157,0.85595703125,-0.372802734375,0.628173828125,12.9375,-40.3125,-27.125,35.18359375
2159,0.85595703125,-0.372802734375,0.628173828125,12.9375,-40.3125,-27.125,35.18359375
2161,0.866455078125,-0.310791015625,0.6533203125,13.375,-42.875,-34.625,35.18359375
2162,0.866455078125,-0.310791015625,0.6533203125,13.375,-42.875,-34.625,35.18359375
2165,0.866455078125,-0.310791015625,0.6533203125,13.375,-42.875,-34.625,35.18359375
2166,0.88037109375,-0.24560546875,0.65869140625,14.0,-45.6875,-42.3125,35.18359375
2168,0.88037109375,-0.24560546875,0.65869140625,14.0,-45.6875,-42.3125,35.18359375
2177,0.914794921875,-0.183349609375,0.642333984375,15.25,-49.1875,-49.3125,35.18359375
2178,0.9853515625,-0.0830078125,0.591064453125,21.5,-56.0625,-58.0,35.18359375
2181,0.9853515625,-0.0830078125,0.591064453125,21.5,-56.0625,-58.0,35.18359375
2186,0.99853515625,-0.051025390625,0.570068359375,25.875,-58.8125,-58.4375,35.18359375
2188,0.991455078125,-0.030029296875,0.567626953125,30.125,-61.1875,-55.8125,35.18359375
2189,0.991455078125,-0.030029296875,0.567626953125,30.125,-61.1875,-55.8125,35.18359375
2191,0.991455078125,-0.030029296875,0.567626953125,30.125,-61.1875,-55.8125,35.18359375
2195,0.98291015625,-0.02490234375,0.577392578125,33.625,-62.625,-50.125,35.18359375
2197,0.979736328125,-0.04052734375,0.589599609375,35.6875,-63.5625,-42.5,35.18359375
2201,0.979736328125,-0.04052734375,0.589599609375,35.6875,-63.5625,-42.5,35.18359375
2203,0.98193359375,-0.078125,0.612060546875,36.6875,-64.0625,-33.75,35.18359375
2205,0.98193359375,-0.078125,0.652587890625,37.875,-64.25,-24.375,35.18359375
2207,0.982421875,-0.129638671875,0.652587890625,37.875,-64.25,-24.375,35.18359375
2210,0.982421875,-0.129638671875,0.652587890625,37.875,-64.25,-24.375,35.18359375
2213,0.981201171875,-0.172119140625,0.700927734375,38.625,-64.875,-14.9375,35.18359375
2216,0.979248046875,-0.2001953125,0.755859375,39.0,-66.0,-6.4375,35.18359375
2218,0.979248046875,-0.2001953125,0.755859375,39.0,-66.0,-6.4375,35.18359375
2222,0.9775390625,-0.22265625,0.81689453125,38.875,-68.0625,0.1875,35.18359375
2224,0.978515625,-0.24609375,0.875732421875,39.125,-71.0,3.5625,35.18359375
2226,0.978515625,-0.24609375,0.875732421875,39.125,-71.0,3.5625,35.18359375
2228,0.974853515625,-0.26806640625,0.926025390625,39.6875,-74.9375,3.5625,35.18359375
2231,0.974853515625,-0.26806640625,0.926025390625,39.6875,-74.9375,3.5625,35.18359375
2233,0.964599609375,-0.287841796875,0.964111328125,40.125,-80.25,0.5,35.18359375
2237,0.964599609375,-0.287841796875,0.964111328125,40.125,-80.25,0.5,35.18359375
2239,0.94873046875,-0.298828125,0.985107421875,40.4375,-86.6875,-5.75,35.18359375
2241,0.91357421875,-0.30078125,0.9814453125,40.9375,-93.875,-14.125,35.18359375
2243,0.91357421875,-0.30078125,0.9814453125,40.9375,-93.875,-14.125,35.18359375
2246,0.860595703125,-0.2900390625,0.961181640625,40.75,-101.25,-24.75,35.18359375
2248,0.860595703125,-0.2900390625,0.961181640625,40.75,-101.25,-24.75,35.18359375
2253,0.806396484375,-0.242431640625,0.90966796875,39.625,-108.125,-37.375,35.19140625
2254,0.771484375,-0.1591796875,0.82421875,38.8125,-114.125,-51.3125,35.19140625
2257,0.771484375,-0.1591796875,0.82421875,38.8125,-114.125,-51.3125,35.19140625
2259,0.7529296875,-0.054931640625,0.7177734375,39.625,-118.3125,-64.625,35.19140625
2262,0.7529296875,-0.054931640625,0.7177734375,39.625,-118.3125,-64.625,35.19140625
2265,0.739013671875,0.05126953125,0.60888671875,42.6875,-121.0,-75.5,35.19140625
2266,0.739013671875,0.05126953125,0.60888671875,42.6875,-121.0,-75.5,35.19140625
2271,0.725830078125,0.1474609375,0.521728515625,48.5,-121.4375,-82.875,35.19140625
2272,0.718017578125,0.236572265625,0.444091796875,56.5,-119.3125,-87.0,35.19140625
2277,0.718017578125,0.236572265625,0.444091796875,56.5,-119.3125,-87.0,35.19140625
2278,0.709228515625,0.2958984375,0.378173828125,64.4375,-114.5,-86.875,35.19140625
2281,0.6953125,0.3134765625,0.333984375,72.625,-108.125,-81.875,35.19140625
2283,0.6953125,0.3134765625,0.333984375,72.625,-108.125,-81.875,35.19140625
2285,0.676025390625,0.290283203125,0.30810546875,80.125,-100.9375,-71.75,35.19140625
2287,0.676025390625,0.290283203125,0.30810546875,80.125,-100.9375,-71.75,35.19140625
2289,0.676025390625,0.290283203125,0.30810546875,80.125,-100.9375,-71.75,35.19140625
2290,0.654052734375,0.240234375,0.30029296875,85.4375,-94.375,-57.4375,35.19140625
2292,0.654052734375,0.240234375,0.30029296875,85.4375,-94.375,-57.4375,35.19140625
2295,0.630859375,0.16455078125,0.304443359375,87.75,-88.375,-40.25,35.19140625
2297,0.630859375,0.16455078125,0.304443359375,87.75,-88.375,-40.25,35.19140625
2299,0.607177734375,0.0625,0.31640625,87.75,-83.375,-21.875,35.19140625
2301,0.607177734375,0.0625,0.31640625,87.75,-83.375,-21.875,35.19140625
2302,0.586669921875,-0.054443359375,0.3359375,85.6875,-80.1875,-3.6875,35.19140625
2304,0.586669921875,-0.054443359375,0.3359375,85.6875,-80.1875,-3.6875,35.19140625
2306,0.586669921875,-0.054443359375,0.3359375,85.6875,-80.1875,-3.6875,35.19140625
2308,0.56201171875,-0.169921875,0.35693359375,82.5625,-78.125,13.375,35.19140625
2310,0.56201171875,-0.169921875,0.35693359375,82.5625,-78.125,13.375,35.19140625
2312,0.539794921875,-0.27099609375,0.385009765625,78.5,-76.75,28.5625,35.19140625
2314,0.539794921875,-0.27099609375,0.385009765625,78.5,-76.75,28.5625,35.19140625
2317,0.52685546875,-0.357177734375,0.426025390625,73.375,-76.1875,41.6875,35.19140625
2318,0.52685546875,-0.357177734375,0.426025390625,73.375,-76.1875,41.6875,35.19140625
2321,0.53173828125,-0.427978515625,0.458740234375,67.875,-76.3125,51.25,35.19140625
2323,0.53173828125,-0.427978515625,0.458740234375,67.875,-76.3125,51.25,35.19140625
2324,0.542724609375,-0.47412109375,0.47412109375,62.5625,-77.4375,55.0,35.19140625
2326,0.542724609375,-0.47412109375,0.47412109375,62.5625,-77.4375,55.0,35.19140625
2329,0.542724609375,-0.47412109375,0.47412109375,62.5625,-77.4375,55.0,35.19140625
2330,0.552734375,-0.502197265625,0.478515625,56.9375,-78.0625,51.75,35.19140625
2332,0.552734375,-0.502197265625,0.478515625,56.9375,-78.0625,51.75,35.19140625
2334,0.564208984375,-0.51611328125,0.46630859375,52.5625,-78.9375,43.25,35.19140625
2336,0.564208984375,-0.51611328125,0.46630859375,52.5625,-78.9375,43.25,35.19140625
2339,0.5791015625,-0.508544921875,0.420166015625,49.125,-80.0625,31.0625,35.19140625
2341,0.5791015625,-0.508544921875,0.420166015625,49.125,-80.0625,31.0625,35.19140625
2343,0.597412109375,-0.47998046875,0.359130859375,45.0,-82.1875,16.875,35.19140625
2345,0.597412109375,-0.47998046875,0.359130859375,45.0,-82.1875,16.875,35.19140625
2347,0.61376953125,-0.443603515625,0.292236328125,41.5,-85.3125,1.5,35.19140625
2349,0.61376953125,-0.443603515625,0.292236328125,41.5,-85.3125,1.5,35.19140625
2351,0.61376953125,-0.381103515625,0.23291015625,40.1875,-87.5625,-14.5,35.19140625
2353,0.623291015625,-0.41162109375,0.23291015625,40.1875,-87.5625,-14.5,35.19140625
2355,0.623291015625,-0.41162109375,0.23291015625,40.1875,-87.5625,-14.5,35.19140625
2357,0.61865234375,-0.3818359375,0.17529296875,40.0625,-88.875,-30.625,35.19140625
2358,0.61865234375,-0.3818359375,0.17529296875,40.0625,-88.875,-30.625,35.19140625
2361,0.597412109375,-0.344970703125,0.121826171875,40.5625,-89.8125,-46.4375,35.19140625
2363,0.597412109375,-0.344970703125,0.121826171875,40.5625,-89.8125,-46.4375,35.19140625
2365,0.57080078125,-0.30517578125,0.072265625,40.8125,-89.9375,-61.125,35.19140625
2367,0.57080078125,-0.30517578125,0.072265625,40.8125,-89.9375,-61.125,35.19140625
2369,0.53857421875,-0.274169921875,0.019775390625,40.375,-88.25,-73.25,35.19140625
2371,0.53857421875,-0.274169921875,0.019775390625,40.375,-88.25,-73.25,35.19140625
2372,0.53857421875,-0.274169921875,0.019775390625,40.375,-88.25,-73.25,35.19140625
2374,0.510498046875,-0.251220703125,-0.034423828125,39.4375,-84.75,-81.5625,35.19140625
2376,0.510498046875,-0.251220703125,-0.034423828125,39.4375,-84.75,-81.5625,35.19140625
2378,0.495361328125,-0.232666015625,-0.088623046875,38.375,-81.0,-85.625,35.19140625
2380,0.495361328125,-0.232666015625,-0.088623046875,38.375,-81.0,-85.625,35.19140625
2383,0.487548828125,-0.2197265625,-0.14208984375,35.75,-76.8125,-85.9375,35.19140625
2385,0.487548828125,-0.2197265625,-0.14208984375,35.75,-76.8125,-85.9375,35.19140625
2387,0.475341796875,-0.205810546875,-0.179443359375,33.0,-71.75,-83.75,35.19140625
2389,0.475341796875,-0.205810546875,-0.179443359375,33.0,-71.75,-83.75,35.19140625
2390,0.475341796875,-0.205810546875,-0.179443359375,33.0,-71.75,-83.75,35.19140625
2392,0.460205078125,-0.180908203125,-0.203857421875,30.625,-66.8125,-79.6875,35.1953125
2394,0.460205078125,-0.180908203125,-0.203857421875,30.625,-66.8125,-79.6875,35.1953125
2396,0.46044921875,-0.15478515625,-0.2099609375,28.1875,-61.5625,-74.625,35.1953125
2398,0.46044921875,-0.15478515625,-0.2099609375,28.1875,-61.5625,-74.625,35.1953125
2400,0.482666015625,-0.13720703125,-0.21240234375,25.9375,-57.125,-69.4375,35.1953125
2402,0.482666015625,-0.13720703125,-0.21240234375,25.9375,-57.125,-69.4375,35.1953125
2405,0.511962890625,-0.130615234375,-0.216064453125,24.1875,-53.0625,-64.75,35.1953125
2407,0.511962890625,-0.130615234375,-0.216064453125,24.1875,-53.0625,-64.75,35.1953125
2408,0.511962890625,-0.134033203125,-0.208984375,22.3125,-50.0625,-60.75,35.1953125
2410,0.541748046875,-0.134033203125,-0.208984375,22.3125,-50.0625,-60.75,35.1953125
2412,0.541748046875,-0.134033203125,-0.208984375,22.3125,-50.0625,-60.75,35.1953125
2414,0.57275390625,-0.1396484375,-0.19775390625,20.9375,-48.5625,-58.3125,35.1953125
2416,0.57275390625,-0.1396484375,-0.19775390625,20.9375,-48.5625,-58.3125,35.1953125
2418,0.6025390625,-0.136962890625,-0.193603515625,20.0,-47.8125,-57.125,35.1953125
2420,0.6025390625,-0.136962890625,-0.193603515625,20.0,-47.8125,-57.125,35.1953125
2422,0.638916015625,-0.1240234375,-0.19384765625,18.375,-47.625,-56.6875,35.1953125
2424,0.638916015625,-0.1240234375,-0.19384765625,18.375,-47.625,-56.6875,35.1953125
2426,0.68798828125,-0.111328125,-0.19921875,15.75,-48.0625,-56.25,35.1953125
2428,0.68798828125,-0.111328125,-0.19921875,15.75,-48.0625,-56.25,35.1953125
2430,0.68798828125,-0.111328125,-0.19921875,15.75,-48.0625,-56.25,35.1953125
2432,0.741943359375,-0.104248046875,-0.2216796875,13.0,-49.25,-55.6875,35.1953125
2434,0.741943359375,-0.104248046875,-0.2216796875,13.0,-49.25,-55.6875,35.1953125
2436,0.78759765625,-0.110595703125,-0.258056640625,10.8125,-51.9375,-55.3125,35.1953125
2438,0.78759765625,-0.110595703125,-0.258056640625,10.8125,-51.9375,-55.3125,35.1953125
2440,0.815185546875,-0.127685546875,-0.290283203125,8.5625,-54.8125,-55.125,35.1953125
2442,0.815185546875,-0.127685546875,-0.290283203125,8.5625,-54.8125,-55.125,35.1953125
2444,0.820556640625,-0.1494140625,-0.32421875,6.4375,-56.25,-54.25,35.1953125
2446,0.820556640625,-0.1494140625,-0.32421875,6.4375,-56.25,-54.25,35.1953125
2448,0.820556640625,-0.1611328125,-0.359375,3.125,-56.5,-53.4375,35.1953125
2450,0.813232421875,-0.1611328125,-0.359375,3.125,-56.5,-53.4375,35.1953125
2452,0.813232421875,-0.1611328125,-0.359375,3.125,-56.5,-53.4375,35.1953125
2454,0.81396484375,-0.163330078125,-0.39306640625,-2.0625,-56.5,-52.0,35.1953125
2456,0.81396484375,-0.163330078125,-0.39306640625,-2.0625,-56.5,-52.0,35.1953125
2458,0.833251953125,-0.16943359375,-0.4375,-8.4375,-56.0,-50.3125,35.1953125
2460,0.833251953125,-0.16943359375,-0.4375,-8.4375,-56.0,-50.3125,35.1953125
2462,0.852783203125,-0.18017578125,-0.5,-14.5,-55.125,-49.4375,35.1953125
2464,0.852783203125,-0.18017578125,-0.5,-14.5,-55.125,-49.4375,35.1953125
2466,0.852783203125,-0.18017578125,-0.5,-14.5,-55.125,-49.4375,35.1953125
2468,0.85693359375,-0.187744140625,-0.55322265625,-19.4375,-53.5625,-49.0,35.1953125
2470,0.85693359375,-0.187744140625,-0.55322265625,-19.4375,-53.5625,-49.0,35.1953125
2472,0.85302734375,-0.182373046875,-0.593994140625,-22.5,-50.9375,-49.1875,35.1953125
2474,0.85302734375,-0.182373046875,-0.593994140625,-22.5,-50.9375,-49.1875,35.1953125
2476,0.843017578125,-0.1640625,-0.645263671875,-23.4375,-47.5,-49.875,35.1953125
2478,0.843017578125,-0.1640625,-0.645263671875,-23.4375,-47.5,-49.875,35.1953125
2480,0.8232421875,-0.14990234375,-0.705322265625,-24.125,-43.25,-51.5,35.1953125
2482,0.8232421875,-0.14990234375,-0.705322265625,-24.125,-43.25,-51.5,35.1953125
2484,0.794677734375,-0.13916015625,-0.748779296875,-24.5625,-37.625,-53.8125,35.1953125
2486,0.794677734375,-0.13916015625,-0.748779296875,-24.5625,-37.625,-53.8125,35.1953125
2488,0.794677734375,-0.13916015625,-0.748779296875,-24.5625,-37.625,-53.8125,35.1953125
2490,0.776611328125,-0.123291015625,-0.7744140625,-24.1875,-30.75,-56.3125,35.1953125
2492,0.776611328125,-0.123291015625,-0.7744140625,-24.1875,-30.75,-56.3125,35.1953125
2494,0.783447265625,-0.101806640625,-0.797119140625,-23.5625,-23.125,-58.875,35.1953125
2496,0.783447265625,-0.101806640625,-0.797119140625,-23.5625,-23.125,-58.875,35.1953125
2498,0.812744140625,-0.079833984375,-0.8232421875,-22.5,-14.75,-62.0,35.1953125
2500,0.812744140625,-0.079833984375,-0.8232421875,-22.5,-14.75,-62.0,35.1953125
2502,0.8525390625,-0.06982421875,-0.850830078125,-20.875,-6.5625,-65.9375,35.1953125
2504,0.8525390625,-0.06982421875,-0.850830078125,-20.875,-6.5625,-65.9375,35.1953125
2506,0.8525390625,-0.06982421875,-0.850830078125,-20.875,1.375,-69.6875,35.1953125
2508,0.8828125,-0.0712890625,-0.87451171875,-18.625,1.375,-69.6875,35.1953125
2510,0.8828125,-0.0712890625,-0.87451171875,-18.625,1.375,-69.6875,35.1953125
2512,0.90380859375,-0.077392578125,-0.89599609375,-15.75,8.5625,-72.5,35.1953125
2514,0.90380859375,-0.077392578125,-0.89599609375,-15.75,8.5625,-72.5,35.1953125
2516,0.919921875,-0.08203125,-0.916748046875,-12.6875,15.625,-74.375,35.1953125
2518,0.919921875,-0.08203125,-0.916748046875,-12.6875,15.625,-74.375,35.1953125
2520,0.935546875,-0.078125,-0.926025390625,-9.875,21.8125,-74.75,35.1953125
2522,0.935546875,-0.078125,-0.926025390625,-9.875,21.8125,-74.75,35.1953125
2524,0.960205078125,-0.07470703125,-0.919921875,-7.4375,27.5,-73.6875,35.1953125
2526,0.960205078125,-0.07470703125,-0.919921875,-7.4375,27.5,-73.6875,35.1953125
2528,0.960205078125,-0.07470703125,-0.919921875,-7.4375,27.5,-73.6875,35.1953125
2530,0.992919921875,-0.07763671875,-0.919921875,-5.8125,32.5625,-72.125,35.1953125
2532,0.992919921875,-0.07763671875,-0.919921875,-5.8125,32.5625,-72.125,35.1953125
2534,1.02294921875,-0.09521484375,-0.9345703125,-4.8125,37.6875,-70.0625,35.1796875
2536,1.02294921875,-0.09521484375,-0.9345703125,-4.8125,37.6875,-70.0625,35.1796875
2539,1.043701171875,-0.121826171875,-0.949951171875,-4.9375,43.0,-67.75,35.1796875
2541,1.043701171875,-0.121826171875,-0.949951171875,-4.9375,43.0,-67.75,35.1796875
2542,1.053955078125,-0.14794921875,-0.9658203125,-6.5,48.0625,-64.3125,35.1796875
2544,1.053955078125,-0.14794921875,-0.9658203125,-6.5,48.0625,-64.3125,35.1796875
2546,1.05810546875,-0.168701171875,-0.97509765625,-9.25,53.75,-59.6875,35.1796875
2548,1.05810546875,-0.168701171875,-0.97509765625,-9.25,53.75,-59.6875,35.1796875
2550,1.05810546875,-0.177734375,-0.971435546875,-13.0625,60.0,-54.0,35.1796875
2552,1.06103515625,-0.177734375,-0.971435546875,-13.0625,60.0,-54.0,35.1796875
2554,1.06103515625,-0.177734375,-0.971435546875,-13.0625,60.0,-54.0,35.1796875
2556,1.0791015625,-0.178466796875,-0.96533203125,-17.5,65.5,-47.625,35.1796875
2558,1.0791015625,-0.178466796875,-0.96533203125,-17.5,65.5,-47.625,35.1796875
2560,1.109619140625,-0.179443359375,-0.962646484375,-21.4375,70.5625,-41.75,35.1796875
2562,1.109619140625,-0.179443359375,-0.962646484375,-21.4375,70.5625,-41.75,35.1796875
2564,1.142578125,-0.17578125,-0.95263671875,-24.8125,74.1875,-36.6875,35.1796875
2566,1.142578125,-0.17578125,-0.95263671875,-24.8125,74.1875,-36.6875,35.1796875
2568,1.175048828125,-0.164794921875,-0.93701171875,-27.0,76.5625,-33.375,35.1796875
2570,1.175048828125,-0.164794921875,-0.93701171875,-27.0,76.5625,-33.375,35.1796875
2572,1.175048828125,-0.164794921875,-0.93701171875,-27.0,76.5625,-33.375,35.1796875
2574,1.2041015625,-0.150390625,-0.920166015625,-27.625,77.75,-31.8125,35.1796875
2576,1.2041015625,-0.150390625,-0.920166015625,-27.625,77.75,-31.8125,35.1796875
2578,1.229248046875,-0.135009765625,-0.907470703125,-27.1875,77.6875,-32.0,35.1796875
2580,1.229248046875,-0.135009765625,-0.907470703125,-27.1875,77.6875,-32.0,35.1796875
2582,1.2412109375,-0.118408203125,-0.9013671875,-25.8125,76.375,-33.875,35.1796875
2584,1.2412109375,-0.118408203125,-0.9013671875,-25.8125,76.375,-33.875,35.1796875
2586,1.245361328125,-0.096923828125,-0.8837890625,-23.75,74.625,-36.8125,35.1796875
2588,1.245361328125,-0.096923828125,-0.8837890625,-23.75,74.625,-36.8125,35.1796875
2590,1.245361328125,-0.096923828125,-0.8837890625,-23.75,74.625,-40.75,35.1796875
2592,1.2509765625,-0.069091796875,-0.85107421875,-21.4375,73.3125,-40.75,35.1796875
2594,1.2509765625,-0.069091796875,-0.85107421875,-21.4375,73.3125,-40.75,35.1796875
2596,1.26513671875,-0.0478515625,-0.8212890625,-18.8125,73.0625,-45.0625,35.1796875
2598,1.26513671875,-0.0478515625,-0.8212890625,-18.8125,73.0625,-45.0625,35.1796875
2600,1.283935546875,-0.030517578125,-0.801513671875,-15.9375,72.9375,-49.4375,35.1796875
2601,1.283935546875,-0.030517578125,-0.801513671875,-15.9375,72.9375,-49.4375,35.1796875
2604,1.309814453125,-0.00732421875,-0.768798828125,-13.75,72.6875,-53.75,35.1796875
2606,1.309814453125,-0.00732421875,-0.768798828125,-13.75,72.6875,-53.75,35.1796875
2608,1.345458984375,0.020263671875,-0.7236328125,-11.9375,71.6875,-57.6875,35.1796875
2610,1.345458984375,0.020263671875,-0.7236328125,-11.9375,71.6875,-57.6875,35.1796875
2612,1.345458984375,0.020263671875,-0.7236328125,-11.9375,71.6875,-57.6875,35.1796875
2614,1.396728515625,0.05029296875,-0.67333984375,-10.375,69.875,-60.4375,35.1796875
2616,1.396728515625,0.05029296875,-0.67333984375,-10.375,69.875,-60.4375,35.1796875
2618,1.46142578125,0.076416015625,-0.627685546875,-8.5,67.125,-62.125,35.1796875
2620,1.46142578125,0.076416015625,-0.627685546875,-8.5,67.125,-62.125,35.1796875
2622,1.52734375,0.10205078125,-0.5908203125,-6.75,63.375,-62.75,35.1796875
2624,1.52734375,0.10205078125,-0.5908203125,-6.75,63.375,-62.75,35.1796875
2626,1.576904296875,0.129638671875,-0.5634765625,-4.4375,58.6875,-62.625,35.1796875
2628,1.576904296875,0.129638671875,-0.5634765625,-4.4375,58.6875,-62.625,35.1796875
2630,1.6025390625,0.15966796875,-0.54150390625,-1.5,52.6875,-61.25,35.1796875
2632,1.6025390625,0.15966796875,-0.54150390625,-1.5,52.6875,-61.25,35.1796875
2634,1.6025390625,0.15966796875,-0.54150390625,-1.5,52.6875,-61.25,35.1796875
2636,1.611328125,0.194091796875,-0.5224609375,1.25,45.375,-58.25,35.1796875
2638,1.611328125,0.194091796875,-0.5224609375,1.25,45.375,-58.25,35.1796875
2640,1.609130859375,0.225830078125,-0.509765625,3.6875,37.5,-53.6875,35.1796875
2642,1.609130859375,0.225830078125,-0.509765625,3.6875,37.5,-53.6875,35.1796875
2644,1.59765625,0.247314453125,-0.50732421875,5.625,29.3125,-47.875,35.1796875
2646,1.59765625,0.247314453125,-0.50732421875,5.625,29.3125,-47.875,35.1796875
2648,1.575439453125,0.260498046875,-0.507080078125,7.0,21.4375,-41.3125,35.1796875
2650,1.575439453125,0.260498046875,-0.507080078125,7.0,21.4375,-41.3125,35.1796875
2652,1.546142578125,0.26708984375,-0.513427734375,8.5,14.0625,-33.9375,35.1796875
2654,1.546142578125,0.26708984375,-0.513427734375,8.5,14.0625,-33.9375,35.1796875
2656,1.546142578125,0.26708984375,-0.513427734375,8.5,14.0625,-33.9375,35.1796875
2658,1.508544921875,0.271484375,-0.53173828125,10.4375,7.5625,-25.9375,35.1796875
2660,1.508544921875,0.271484375,-0.53173828125,10.4375,7.5625,-25.9375,35.1796875
2662,1.465087890625,0.268798828125,-0.55908203125,11.875,2.0,-16.875,35.1796875
2664,1.465087890625,0.268798828125,-0.55908203125,11.875,2.0,-16.875,35.1796875
2666,1.414794921875,0.259521484375,-0.581787109375,12.8125,-2.0,-6.875,35.1796875
2668,1.414794921875,0.259521484375,-0.581787109375,12.8125,-2.0,-6.875,35.1796875
2670,1.414794921875,0.259521484375,-0.581787109375,13.5625,-4.625,3.6875,35.1796875
2672,1.36181640625,0.24462890625,-0.5927734375,13.5625,-4.625,3.6875,35.1796875
2674,1.36181640625,0.24462890625,-0.5927734375,13.5625,-4.625,14.0,35.1796875
2676,1.314697265625,0.22607421875,-0.6015625,14.375,-5.875,14.0,35.1796875
2678,1.314697265625,0.22607421875,-0.6015625,14.375,-5.875,14.0,35.1796875
2680,1.276123046875,0.20458984375,-0.6142578125,14.6875,-6.125,23.8125,35.1796875
2682,1.276123046875,0.20458984375,-0.6142578125,14.6875,-6.125,23.8125,35.1796875
2684,1.242431640625,0.175537109375,-0.62451171875,14.5,-5.6875,32.6875,35.1796875
2686,1.242431640625,0.175537109375,-0.62451171875,14.5,-5.6875,32.6875,35.1796875
2688,1.212890625,0.1416015625,-0.63134765625,14.125,-4.5625,40.6875,35.1796875
2690,1.212890625,0.1416015625,-0.63134765625,14.125,-4.5625,40.6875,35.1796875
2692,1.212890625,0.1416015625,-0.63134765625,14.125,-4.5625,40.6875,35.1796875
2694,1.1865234375,0.110107421875,-0.6337890625,13.6875,-3.4375,47.9375,35.1796875
2696,1.1865234375,0.110107421875,-0.6337890625,13.6875,-3.4375,47.9375,35.1796875
2698,1.164306640625,0.08984375,-0.632568359375,13.375,-2.0,54.25,35.1796875
2700,1.164306640625,0.08984375,-0.632568359375,13.375,-2.0,54.25,35.1796875
2702,1.150634765625,0.078369140625,-0.624755859375,13.125,-0.75,59.8125,35.1796875
2704,1.150634765625,0.078369140625,-0.624755859375,13.125,-0.75,59.8125,35.1796875
2706,1.147705078125,0.068359375,-0.618896484375,12.875,0.1875,63.9375,35.1796875
2708,1.147705078125,0.068359375,-0.618896484375,12.875,0.1875,63.9375,35.1796875
2709,1.147705078125,0.068359375,-0.618896484375,12.875,0.1875,63.9375,35.1796875
2711,1.155517578125,0.0576171875,-0.61474609375,13.0,0.25,66.625,35.1796875
2713,1.155517578125,0.0576171875,-0.61474609375,13.0,0.25,66.625,35.1796875
2715,1.173828125,0.044921875,-0.611083984375,13.5,-0.8125,68.3125,35.1796875
2717,1.173828125,0.044921875,-0.611083984375,13.5,-0.8125,68.3125,35.1796875
2720,1.189697265625,0.0322265625,-0.6025390625,15.0,-2.5625,68.4375,35.1796875
2721,1.189697265625,0.0322265625,-0.6025390625,15.0,-2.5625,68.4375,35.1796875
2723,1.19287109375,0.02392578125,-0.5927734375,17.0,-5.0,67.625,35.1796875
2725,1.19287109375,0.02392578125,-0.5927734375,17.0,-5.0,67.625,35.1796875
2727,1.19287109375,0.02392578125,-0.58203125,18.8125,-8.0,65.875,35.1796875
2729,1.189453125,0.01513671875,-0.58203125,18.8125,-8.0,65.875,35.1796875
2731,1.189453125,0.01513671875,-0.58203125,18.8125,-8.0,65.875,35.1796875
2733,1.188232421875,0.007568359375,-0.56982421875,20.6875,-12.0,63.875,35.1796875
2736,1.188232421875,0.007568359375,-0.56982421875,20.6875,-12.0,63.875,35.1796875
2738,1.200927734375,-0.003662109375,-0.557861328125,21.875,-16.375,61.5,35.1796875
2740,1.200927734375,-0.003662109375,-0.557861328125,21.875,-16.375,61.5,35.1796875
2742,1.220947265625,-0.022705078125,-0.55712890625,22.4375,-20.25,58.375,35.1796875
2744,1.220947265625,-0.022705078125,-0.55712890625,22.4375,-20.25,58.375,35.1796875
2746,1.241943359375,-0.046142578125,-0.572265625,22.5625,-24.125,55.0,35.1796875
2748,1.241943359375,-0.046142578125,-0.572265625,22.5625,-24.125,55.0,35.1796875
2750,1.256591796875,-0.070556640625,-0.58935546875,22.375,-27.8125,51.3125,35.1796875
2752,1.256591796875,-0.070556640625,-0.58935546875,22.375,-27.8125,51.3125,35.1796875
2754,1.256591796875,-0.070556640625,-0.58935546875,21.875,-31.125,48.0,35.1796875
2756,1.262939453125,-0.087158203125,-0.60693359375,21.875,-31.125,48.0,35.1796875
2758,1.262939453125,-0.087158203125,-0.60693359375,21.875,-31.125,48.0,35.1796875
2760,1.262939453125,-0.099365234375,-0.6279296875,21.4375,-33.5625,45.5,35.1796875
2762,1.262939453125,-0.099365234375,-0.6279296875,21.4375,-33.5625,45.5,35.1796875
2764,1.2607421875,-0.110107421875,-0.64990234375,20.8125,-35.25,44.0,35.1796875
2766,1.2607421875,-0.110107421875,-0.64990234375,20.8125,-35.25,44.0,35.1796875
2768,1.266357421875,-0.121337890625,-0.675048828125,20.0,-36.3125,43.0,35.1796875
2770,1.266357421875,-0.121337890625,-0.675048828125,20.0,-36.3125,43.0,35.1796875
2772,1.281982421875,-0.1328125,-0.705322265625,19.4375,-36.625,42.25,35.1796875
2774,1.281982421875,-0.1328125,-0.705322265625,19.4375,-36.625,42.25,35.1796875
2776,1.281982421875,-0.1328125,-0.705322265625,19.4375,-36.625,42.25,35.1796875
2778,1.308837890625,-0.138427734375,-0.737548828125,19.625,-36.8125,41.3125,35.1796875
2780,1.308837890625,-0.138427734375,-0.737548828125,19.625,-36.8125,41.3125,35.1796875
2782,1.334228515625,-0.140625,-0.764404296875,20.5,-36.625,40.0,35.1796875
2783,1.334228515625,-0.140625,-0.764404296875,20.5,-36.625,40.0,35.1796875
2785,1.348876953125,-0.143310546875,-0.78955078125,22.25,-35.8125,39.125,35.1796875
2788,1.348876953125,-0.143310546875,-0.78955078125,22.25,-35.8125,39.125,35.1796875
2790,1.3525390625,-0.149658203125,-0.80712890625,24.75,-35.0625,38.3125,35.1796875
2792,1.3525390625,-0.149658203125,-0.80712890625,24.75,-35.0625,38.3125,35.1796875
2794,1.3525390625,-0.149658203125,-0.80712890625,24.75,-35.0625,38.3125,35.1796875
2795,1.340087890625,-0.161376953125,-0.8232421875,27.8125,-34.3125,37.625,35.1796875
2797,1.340087890625,-0.161376953125,-0.8232421875,27.8125,-34.3125,37.625,35.1796875
2799,1.314453125,-0.1708984375,-0.835205078125,31.0625,-33.3125,37.9375,35.1796875
2801,1.314453125,-0.1708984375,-0.835205078125,31.0625,-33.3125,37.9375,35.1796875
2803,1.27978515625,-0.183837890625,-0.8486328125,34.25,-31.75,39.25,35.1796875
2805,1.27978515625,-0.183837890625,-0.8486328125,34.25,-31.75,39.25,35.1796875
2807,1.239501953125,-0.204345703125,-0.86572265625,36.4375,-30.0,42.25,35.1796875
2810,1.239501953125,-0.204345703125,-0.86572265625,36.4375,-30.0,42.25,35.1796875
2812,1.1953125,-0.23291015625,-0.885498046875,38.0,-28.0,46.1875,35.1796875
2813,1.1953125,-0.23291015625,-0.885498046875,38.0,-28.0,46.1875,35.1796875
2816,1.1953125,-0.23291015625,-0.885498046875,38.0,-28.0,46.1875,35.1796875
2817,1.151611328125,-0.268310546875,-0.900146484375,39.0,-25.8125,50.75,35.171875
2819,1.151611328125,-0.268310546875,-0.900146484375,39.0,-25.8125,50.75,35.171875
2821,1.11181640625,-0.296142578125,-0.90771484375,40.1875,-23.125,55.5625,35.171875
2823,1.11181640625,-0.296142578125,-0.90771484375,40.1875,-23.125,55.5625,35.171875
2825,1.0732421875,-0.319580078125,-0.92333984375,41.125,-20.125,60.125,35.171875
2827,1.0732421875,-0.319580078125,-0.92333984375,41.125,-20.125,60.125,35.171875
2829,1.0732421875,-0.319580078125,-0.92333984375,41.125,-20.125,60.125,35.171875
2831,1.038818359375,-0.347412109375,-0.9384765625,41.25,-17.625,63.5,35.171875
2833,1.038818359375,-0.347412109375,-0.9384765625,41.25,-17.625,63.5,35.171875
2835,1.010986328125,-0.37744140625,-0.939208984375,41.0,-15.25,64.8125,35.171875
2837,1.010986328125,-0.37744140625,-0.939208984375,41.0,-15.25,64.8125,35.171875
2839,0.98779296875,-0.402099609375,-0.930908203125,40.75,-12.3125,64.25,35.171875
2841,0.98779296875,-0.402099609375,-0.930908203125,40.75,-12.3125,64.25,35.171875
2843,0.968505859375,-0.4111328125,-0.919921875,40.1875,-9.6875,62.25,35.171875
2845,0.968505859375,-0.4111328125,-0.919921875,40.1875,-9.6875,62.25,35.171875
2847,0.968505859375,-0.4111328125,-0.919921875,40.1875,-9.6875,60.4375,35.171875
2849,0.98388671875,-0.404296875,-0.9033203125,37.75,-8.5,60.4375,35.171875
2851,0.98388671875,-0.404296875,-0.9033203125,37.75,-8.5,60.4375,35.171875
2853,1.038818359375,-0.398681640625,-0.886474609375,33.125,-9.5625,59.125,35.171875
2855,1.038818359375,-0.398681640625,-0.886474609375,33.125,-9.5625,59.125,35.171875
2857,1.12353515625,-0.396484375,-0.87060546875,28.0,-13.9375,58.5,35.171875
2859,1.12353515625,-0.396484375,-0.87060546875,28.0,-13.9375,58.5,35.171875
2861,1.222900390625,-0.389404296875,-0.84619140625,23.3125,-21.25,58.75,35.171875
2863,1.222900390625,-0.389404296875,-0.84619140625,23.3125,-21.25,58.75,35.171875
2865,1.318603515625,-0.380126953125,-0.83935546875,19.6875,-30.875,59.75,35.171875
2867,1.318603515625,-0.380126953125,-0.83935546875,19.6875,-30.875,59.75,35.171875
2869,1.318603515625,-0.380126953125,-0.83935546875,19.6875,-46.875,60.8125,35.171875
2871,1.400634765625,-0.36083984375,-0.856689453125,17.1875,-42.6875,60.8125,35.171875
2873,1.400634765625,-0.36083984375,-0.856689453125,17.1875,-42.6875,60.8125,35.171875
2875,1.46875,-0.34130859375,-0.894287109375,14.625,-55.3125,61.875,35.171875
2877,1.46875,-0.34130859375,-0.894287109375,14.625,-55.3125,61.875,35.171875
2879,1.512939453125,-0.335693359375,-0.930419921875,12.0625,-67.5,63.5,35.171875
2881,1.512939453125,-0.335693359375,-0.930419921875,12.0625,-67.5,63.5,35.171875
2883,1.519775390625,-0.341064453125,-0.960205078125,10.6875,-77.625,65.9375,35.171875
2885,1.519775390625,-0.341064453125,-0.960205078125,10.6875,-77.625,65.9375,35.171875
2887,1.483154296875,-0.341796875,-0.994140625,10.875,-84.9375,68.875,35.171875
2889,1.483154296875,-0.341796875,-0.994140625,10.875,-84.9375,68.875,35.171875
2891,1.483154296875,-0.341796875,-0.994140625,10.875,-84.9375,68.875,35.171875
2893,1.41552734375,-0.3291015625,-1.025146484375,11.3125,-90.0,71.5,35.171875
2894,1.41552734375,-0.3291015625,-1.025146484375,11.3125,-90.0,71.5,35.171875
2896,1.328369140625,-0.320556640625,-1.0458984375,11.0625,-92.1875,72.5625,35.171875
2899,1.328369140625,-0.320556640625,-1.0458984375,11.0625,-92.1875,72.5625,35.171875
2901,1.22998046875,-0.32177734375,-1.06103515625,10.6875,-90.625,70.875,35.171875
2903,1.22998046875,-0.32177734375,-1.06103515625,10.6875,-90.625,70.875,35.171875
2905,1.124267578125,-0.332763671875,-1.0703125,12.0,-85.8125,65.6875,35.171875
2906,1.124267578125,-0.332763671875,-1.0703125,12.0,-85.8125,65.6875,35.171875
2908,1.124267578125,-0.332763671875,-1.0703125,12.0,-85.8125,65.6875,35.171875
2910,1.02490234375,-0.343505859375,-1.07470703125,15.4375,-78.3125,56.125,35.171875
2912,1.02490234375,-0.343505859375,-1.07470703125,15.4375,-78.3125,56.125,35.171875
2914,0.91845703125,-0.35546875,-1.0625,19.4375,-67.9375,43.5,35.171875
2916,0.91845703125,-0.35546875,-1.0625,19.4375,-67.9375,43.5,35.171875
2918,0.804931640625,-0.368896484375,-1.03515625,22.75,-53.9375,28.3125,35.171875
2921,0.804931640625,-0.368896484375,-1.03515625,22.75,-53.9375,28.3125,35.171875
2923,0.7001953125,-0.3720703125,-0.990234375,24.25,-36.625,12.625,35.171875
2925,0.7001953125,-0.3720703125,-0.990234375,24.25,-36.625,12.625,35.171875
2927,0.7001953125,-0.3720703125,-0.990234375,24.25,-36.625,-1.625,35.171875
2928,0.612548828125,-0.362060546875,-0.9375,22.0,-16.8125,-1.625,35.171875
2930,0.612548828125,-0.362060546875,-0.9375,22.0,-16.8125,-1.625,35.171875
2932,0.548828125,-0.34375,-0.894287109375,16.0625,4.75,-11.875,35.171875
2934,0.548828125,-0.34375,-0.894287109375,16.0625,4.75,-11.875,35.171875
2937,0.508544921875,-0.320556640625,-0.864990234375,8.125,25.8125,-16.5625,35.171875
2939,0.508544921875,-0.320556640625,-0.864990234375,8.125,25.8125,-16.5625,35.171875
2941,0.49658203125,-0.293701171875,-0.820556640625,-1.5625,45.125,-15.6875,35.171875
2943,0.49658203125,-0.293701171875,-0.820556640625,-1.5625,45.125,-15.6875,35.171875
2945,0.508544921875,-0.256591796875,-0.724609375,-12.5625,59.5625,-9.6875,35.171875
2947,0.508544921875,-0.256591796875,-0.724609375,-12.5625,59.5625,-9.6875,35.171875
2949,0.508544921875,-0.194091796875,-0.587158203125,-24.125,66.875,1.6875,35.171875
2951,0.549560546875,-0.2099609375,-0.587158203125,-24.125,66.875,1.6875,35.171875
2953,0.549560546875,-0.2099609375,-0.587158203125,-24.125,66.875,1.6875,35.171875
2955,0.640625,-0.16650390625,-0.421630859375,-35.8125,67.0625,16.6875,35.171875
2956,0.640625,-0.16650390625,-0.421630859375,-35.8125,67.0625,16.6875,35.171875
2958,0.768798828125,-0.146728515625,-0.261474609375,-47.0,61.4375,32.5625,35.171875
2960,0.768798828125,-0.146728515625,-0.261474609375,-47.0,61.4375,32.5625,35.171875
2962,0.88330078125,-0.148193359375,-0.13525390625,-56.75,52.5,46.875,35.171875
2964,0.88330078125,-0.148193359375,-0.13525390625,-56.75,52.5,46.875,35.171875
2967,0.93701171875,-0.1513671875,-0.041259765625,-64.3125,42.125,58.6875,35.171875
2969,0.93701171875,-0.1513671875,-0.041259765625,-64.3125,42.125,58.6875,35.171875
2970,0.93701171875,-0.1513671875,-0.041259765625,-64.3125,42.125,58.6875,35.171875
2973,0.917236328125,-0.142333984375,0.021240234375,-70.0,31.125,67.875,35.171875
2974,0.917236328125,-0.142333984375,0.021240234375,-70.0,31.125,67.875,35.171875
2976,0.842529296875,-0.11865234375,0.06396484375,-74.6875,19.875,74.1875,35.171875
2978,0.842529296875,-0.11865234375,0.06396484375,-74.6875,19.875,74.1875,35.171875
2980,0.736083984375,-0.086181640625,0.100341796875,-78.3125,9.75,77.25,35.171875
2982,0.736083984375,-0.086181640625,0.100341796875,-78.3125,9.75,77.25,35.171875
2984,0.736083984375,-0.0458984375,0.116943359375,-81.375,2.9375,78.125,35.171875
2986,0.614990234375,-0.0458984375,0.116943359375,-81.375,2.9375,78.125,35.171875
2989,0.614990234375,-0.0458984375,0.116943359375,-83.5625,0.25,77.5625,35.171875
2991,0.491455078125,-0.010009765625,0.112548828125,-83.5625,0.25,77.5625,35.171875
2992,0.491455078125,-0.010009765625,0.112548828125,-83.5625,0.25,77.5625,35.171875
2994,0.3759765625,0.0126953125,0.09619140625,-83.25,1.1875,75.8125,35.171875
2996,0.3759765625,0.0126953125,0.09619140625,-83.25,1.1875,75.8125,35.171875
2998,0.263916015625,0.024658203125,0.078125,-79.75,5.5,72.9375,35.171875
3000,0.263916015625,0.024658203125,0.078125,-79.75,5.5,72.9375,35.171875
3002,0.1455078125,0.035888671875,0.067626953125,-73.625,13.0625,68.625,35.171875
3004,0.1455078125,0.035888671875,0.067626953125,-73.625,13.0625,68.625,35.171875
3006,0.1455078125,0.035888671875,0.067626953125,-73.625,13.0625,68.625,35.171875
3008,0.03515625,0.05419921875,0.07666015625,-65.25,23.9375,62.8125,35.171875
3010,0.03515625,0.05419921875,0.07666015625,-65.25,23.9375,62.8125,35.171875
3012,-0.062255859375,0.068359375,0.10595703125,-55.375,38.6875,56.0625,35.171875
3014,-0.062255859375,0.068359375,0.10595703125,-55.375,38.6875,56.0625,35.171875
3016,-0.151123046875,0.080810546875,0.1494140625,-45.625,57.3125,48.6875,35.171875
3018,-0.151123046875,0.080810546875,0.1494140625,-45.625,57.3125,48.6875,35.171875
3020,-0.227783203125,0.092529296875,0.21533203125,-37.5,78.75,40.875,35.171875
3022,-0.227783203125,0.092529296875,0.21533203125,-37.5,78.75,40.875,35.171875
3024,-0.227783203125,0.092529296875,0.313720703125,-32.5,100.6875,33.3125,35.171875
3026,-0.278564453125,0.1064453125,0.313720703125,-32.5,100.6875,33.3125,35.171875
3028,-0.278564453125,0.1064453125,0.313720703125,-32.5,100.6875,33.3125,35.171875
3030,-0.288330078125,0.1328125,0.464111328125,-30.5,120.6875,27.1875,35.171875
3032,-0.288330078125,0.1328125,0.464111328125,-30.5,120.6875,27.1875,35.171875
3034,-0.21826171875,0.1494140625,0.646484375,-31.0,136.5625,23.375,35.171875
3036,-0.21826171875,0.1494140625,0.646484375,-31.0,136.5625,23.375,35.171875
3038,-0.0517578125,0.13525390625,0.816162109375,-32.3125,147.5625,20.875,35.171875
3040,-0.0517578125,0.13525390625,0.816162109375,-32.3125,147.5625,20.875,35.171875
3042,-0.0517578125,0.07275390625,0.96044921875,-34.0625,153.0,19.1875,35.171875
3044,0.168701171875,0.104736328125,0.96044921875,-34.0625,153.0,19.1875,35.171875
3046,0.168701171875,0.104736328125,0.96044921875,-34.0625,153.0,19.1875,35.171875
3048,0.373779296875,0.07080078125,1.083251953125,-35.9375,153.25,17.5,35.171875
3050,0.373779296875,0.07080078125,1.083251953125,-35.9375,153.25,17.5,35.171875
3052,0.524169921875,0.05615234375,1.17919921875,-36.25,149.75,15.9375,35.171875
3054,0.524169921875,0.05615234375,1.17919921875,-36.25,149.75,15.9375,35.171875
3056,0.622802734375,0.073974609375,1.265869140625,-36.0625,143.8125,15.0625,35.171875
3058,0.622802734375,0.073974609375,1.265869140625,-36.0625,143.8125,15.0625,35.171875
3060,0.6904296875,0.10791015625,1.34716796875,-36.1875,136.375,15.5625,35.171875
3062,0.6904296875,0.10791015625,1.34716796875,-36.1875,136.375,15.5625,35.171875
3064,0.6904296875,0.10791015625,1.34716796875,-36.1875,126.9375,16.5625,35.171875
3066,0.757080078125,0.130859375,1.402587890625,-37.375,126.9375,16.5625,35.171875
3068,0.757080078125,0.130859375,1.402587890625,-37.375,126.9375,16.5625,35.171875
3070,0.836181640625,0.1181640625,1.419677734375,-38.5,116.625,17.375,35.171875
3072,0.836181640625,0.1181640625,1.419677734375,-38.5,116.625,17.375,35.171875
3074,0.90625,0.08154296875,1.40234375,-38.8125,106.4375,17.3125,35.171875
3075,0.90625,0.08154296875,1.40234375,-38.8125,106.4375,17.3125,35.171875
3077,0.90625,0.038818359375,1.360107421875,-37.875,97.1875,15.5,35.171875
