time,acc_x,acc_y,acc_z,gyro_x,gyro_y,gyro_z,temp
0,0.0,0.0,0.0,0.0,0.0,0.0,0.0
2,0.0,0.0,0.0,0.0,0.0,0.0,0.0
4,0.0,0.0,0.0,0.0,0.0,0.0,0.0
6,0.0,0.0,0.0,0.0,0.0,0.0,0.0
8,0.0,0.0,0.0,0.0,0.0,0.0,0.0
10,0.0,0.0,0.0,0.0,0.0,0.0,0.0
11,0.0,0.0,0.0,0.0,0.0,0.0,0.0
13,0.0,0.0,0.0,0.0,0.0,0.0,0.0
15,0.0,0.0,0.0,0.0,0.0,0.0,0.0
17,0.0,0.0,0.0,0.0,0.0,0.0,0.0
19,0.0,0.0,0.0,0.0,0.0,0.0,0.0
20,0.0,0.0,0.0,0.0,0.0,0.0,0.0
22,0.0,0.0,0.0,0.0,0.0,0.0,0.0
24,0.0,0.0,0.0,0.0,0.0,0.0,0.0
26,0.0,0.0,0.0,0.0,0.0,0.0,0.0
28,0.0,0.0,0.0,0.0,0.0,0.0,0.0
29,0.0,0.0,0.0,0.0,0.0,0.0,0.0
31,0.0,0.0,0.0,0.0,0.0,0.0,0.0
33,0.0,0.0,0.0,0.0,0.0,0.0,0.0
35,0.0,0.0,0.0,0.0,0.0,0.0,0.0
37,0.0,0.0,0.0,0.0,0.0,0.0,0.0
39,0.0,0.0,0.0,0.0,0.0,0.0,0.0
41,0.0,0.0,0.0,0.0,0.0,0.0,0.0
43,0.0,0.0,0.0,0.0,0.0,0.0,0.0
44,0.0,0.0,0.0,0.0,0.0,0.0,0.0
46,0.0,0.0,0.0,0.0,0.0,0.0,0.0
48,0.0,0.0,0.0,0.0,0.0,0.0,0.0
50,0.0,0.0,0.0,0.0,0.0,0.0,0.0
52,0.0,0.0,0.0,0.0,0.0,0.0,0.0
53,0.0,0.0,0.0,0.0,0.0,0.0,0.0
55,0.0,0.0,0.0,0.0,0.0,0.0,0.0
57,0.0,0.0,0.0,0.0,0.0,0.0,0.0
59,0.0,0.0,0.0,0.0,0.0,0.0,0.0
61,0.0,0.0,0.0,0.0,0.0,0.0,0.0
62,0.0,0.0,0.0,0.0,0.0,0.0,0.0
64,0.0,0.0,0.0,0.0,0.0,0.0,0.0
67,0.0,0.0,0.0,0.0,0.0,0.0,0.0
68,0.0,0.0,0.0,0.0,0.0,0.0,0.0
70,0.0,0.0,0.0,0.0,0.0,0.0,0.0
72,0.0,0.0,0.0,0.0,0.0,0.0,0.0
74,0.0,0.0,0.0,0.0,0.0,0.0,0.0
76,0.0,0.0,0.0,0.0,0.0,0.0,0.0
77,0.0,0.0,0.0,0.0,0.0,0.0,0.0
79,0.0,0.0,0.0,0.0,0.0,0.0,0.0
81,0.0,0.0,0.0,0.0,0.0,0.0,0.0
83,0.0,0.0,0.0,0.0,0.0,0.0,0.0
85,0.0,0.0,0.0,0.0,0.0,0.0,0.0
87,0.0,0.0,0.0,0.0,0.0,0.0,0.0
88,0.0,0.0,0.0,0.0,0.0,0.0,0.0
90,0.0,0.0,0.0,0.0,0.0,0.0,0.0
92,0.0,0.0,0.0,0.0,0.0,0.0,0.0
94,0.0,0.0,0.0,0.0,0.0,0.0,0.0
96,0.0,0.0,0.0,0.0,0.0,432.0,0.0
98,-4.787109375,1.68115234375,-0.9091796875,427.9375,262.4375,435.625,34.7890625
100,-4.787109375,1.68115234375,-0.9091796875,427.9375,262.4375,435.625,34.7890625
102,-8.0,-6.631103515625,7.999755859375,-2048.0,93.5,-2048.0,34.7890625
104,-8.0,-6.631103515625,7.999755859375,-2048.0,93.5,-2048.0,34.7890625
106,-8.0,1.87890625,-8.0,-1942.125,-2048.0,-2048.0,34.7890625
108,-8.0,1.87890625,-8.0,-1942.125,-2048.0,-2048.0,34.7890625
110,0.934814453125,0.190185546875,0.253173828125,2.125,3.375,3.75,34.7890625
112,0.934814453125,0.190185546875,0.253173828125,2.125,3.375,3.75,34.7890625
114,0.934814453125,0.190185546875,0.253173828125,2.125,3.375,3.75,34.7890625
116,0.941162109375,0.195556640625,0.26513671875,1.6875,4.9375,3.75,34.7890625
118,0.941162109375,0.195556640625,0.26513671875,1.6875,4.9375,3.75,34.7890625
120,0.947265625,0.199462890625,0.2783203125,1.125,6.0,3.4375,34.7890625
122,0.947265625,0.199462890625,0.2783203125,1.125,6.0,3.4375,34.7890625
124,0.955322265625,0.201171875,0.2861328125,-0.25,6.5,3.0625,34.85546875
126,0.955322265625,0.201171875,0.2861328125,-0.25,6.5,3.0625,34.85546875
128,0.9599609375,0.201416015625,0.29443359375,-0.1875,7.125,2.6875,34.85546875
130,0.9599609375,0.201416015625,0.29443359375,-0.1875,7.125,2.6875,34.85546875
132,0.960693359375,0.199462890625,0.303466796875,0.6875,7.125,1.875,34.85546875
134,0.960693359375,0.199462890625,0.303466796875,0.6875,7.125,1.875,34.85546875
136,0.960693359375,0.199462890625,0.303466796875,0.6875,7.125,1.875,34.85546875
138,0.96240234375,0.19921875,0.311767578125,1.5625,7.3125,0.9375,34.85546875
140,0.96240234375,0.19921875,0.311767578125,1.5625,7.3125,0.9375,34.85546875
142,0.96435546875,0.19921875,0.322998046875,2.625,7.1875,0.25,34.85546875
144,0.96435546875,0.19921875,0.322998046875,2.625,7.1875,0.25,34.85546875
146,0.968017578125,0.197265625,0.32666015625,3.375,6.8125,-0.5,34.85546875
148,0.968017578125,0.197265625,0.32666015625,3.375,6.8125,-0.5,34.85546875
150,0.970703125,0.197265625,0.330078125,4.0,6.0625,-1.0625,34.85546875
152,0.970703125,0.197265625,0.330078125,4.0,6.0625,-1.0625,34.85546875
154,0.972412109375,0.194580078125,0.328857421875,4.5625,4.9375,-1.0625,34.85546875
156,0.972412109375,0.194580078125,0.328857421875,4.5625,4.9375,-1.0625,34.85546875
158,0.972412109375,0.194580078125,0.328857421875,4.5625,4.9375,-1.0625,34.85546875
160,0.9716796875,0.1904296875,0.323974609375,4.5625,3.1875,-0.875,34.85546875
162,0.9716796875,0.1904296875,0.323974609375,4.5625,3.1875,-0.875,34.85546875
164,0.96923828125,0.185302734375,0.31787109375,4.0625,1.6875,-0.6875,34.85546875
166,0.96923828125,0.185302734375,0.31787109375,4.0625,1.6875,-0.6875,34.85546875
168,0.96435546875,0.180419921875,0.3125,3.125,0.375,0.0,34.85546875
170,0.96435546875,0.180419921875,0.3125,3.125,0.375,0.0,34.85546875
172,0.959716796875,0.17822265625,0.306884765625,2.0625,-0.75,1.0625,34.85546875
174,0.959716796875,0.17822265625,0.306884765625,2.0625,-0.75,1.0625,34.85546875
176,0.95703125,0.177490234375,0.303466796875,1.375,-1.75,1.9375,34.85546875
178,0.95703125,0.177490234375,0.303466796875,1.375,-1.75,1.9375,34.85546875
180,0.95703125,0.177490234375,0.303466796875,1.375,-1.75,1.9375,34.85546875
182,0.954833984375,0.1767578125,0.301025390625,0.375,-2.625,2.6875,34.85546875
184,0.954833984375,0.1767578125,0.301025390625,0.375,-2.625,2.6875,34.85546875
186,0.953125,0.176513671875,0.298583984375,-0.375,-3.1875,3.5625,34.85546875
188,0.953125,0.176513671875,0.298583984375,-0.375,-3.1875,3.5625,34.85546875
190,0.95166015625,0.17724609375,0.296142578125,-0.5625,-3.4375,4.375,34.85546875
192,0.95166015625,0.17724609375,0.296142578125,-0.5625,-3.4375,4.375,34.85546875
194,0.95166015625,0.17724609375,0.29833984375,-0.9375,-3.5,4.75,34.85546875
196,0.948974609375,0.17822265625,0.29833984375,-0.9375,-3.5,4.75,34.85546875
198,0.947265625,0.177001953125,0.301513671875,-0.875,-3.375,4.75,34.85546875
200,0.947265625,0.177001953125,0.301513671875,-0.875,-3.375,4.75,34.85546875
202,0.947265625,0.177001953125,0.301513671875,-0.875,-3.375,4.75,34.85546875
204,0.947509765625,0.17431640625,0.30322265625,-0.5625,-3.0625,4.4375,34.85546875
206,0.947509765625,0.17431640625,0.30322265625,-0.5625,-3.0625,4.4375,34.85546875
208,0.947265625,0.171142578125,0.30078125,-0.1875,-2.8125,3.8125,34.85546875
210,0.947265625,0.171142578125,0.30078125,-0.1875,-2.8125,3.8125,34.85546875
212,0.947509765625,0.1689453125,0.298095703125,0.25,-2.4375,3.0625,34.85546875
214,0.947509765625,0.1689453125,0.298095703125,0.25,-2.4375,3.0625,34.85546875
216,0.947509765625,0.1689453125,0.298095703125,0.25,-2.4375,2.0625,34.85546875
218,0.94677734375,0.168701171875,0.298828125,0.5,-2.0,2.0625,34.85546875
220,0.947998046875,0.1708984375,0.29736328125,0.75,-1.375,1.25,34.85546875
222,0.947998046875,0.1708984375,0.29736328125,0.75,-1.375,1.25,34.85546875
224,0.947998046875,0.1708984375,0.29736328125,0.75,-1.375,1.25,34.85546875
226,0.947998046875,0.17236328125,0.299560546875,1.4375,-0.9375,0.375,34.85546875
228,0.947998046875,0.17236328125,0.299560546875,1.4375,-0.9375,0.375,34.85546875
230,0.94677734375,0.17578125,0.302490234375,2.125,-0.75,-0.4375,34.85546875
232,0.94677734375,0.17578125,0.302490234375,2.125,-0.75,-0.4375,34.85546875
234,0.947998046875,0.180419921875,0.3056640625,2.625,-0.625,-1.0,34.85546875
236,0.947998046875,0.180419921875,0.3056640625,2.625,-0.625,-1.0,34.85546875
238,0.947998046875,0.180419921875,0.3056640625,2.625,-0.625,-1.0,34.85546875
240,0.94921875,0.182861328125,0.306884765625,2.9375,-0.875,-1.5625,34.85546875
242,0.94921875,0.182861328125,0.306884765625,2.9375,-0.875,-1.5625,34.85546875
244,0.947509765625,0.18310546875,0.306884765625,3.125,-1.375,-1.4375,34.85546875
246,0.947509765625,0.18310546875,0.306884765625,3.125,-1.375,-1.4375,34.85546875
248,0.9453125,0.181640625,0.30517578125,3.0625,-1.9375,-1.1875,34.85546875
250,0.9453125,0.181640625,0.30517578125,3.0625,-1.9375,-1.1875,34.85546875
252,0.943115234375,0.18212890625,0.302734375,3.0,-2.5625,-1.0,34.85546875
254,0.943115234375,0.18212890625,0.302734375,3.0,-2.5625,-1.0,34.85546875
256,0.940185546875,0.185546875,0.30322265625,2.9375,-3.0,-0.5,34.85546875
258,0.940185546875,0.185546875,0.30322265625,2.9375,-3.0,-0.5,34.85546875
260,0.940185546875,0.185546875,0.30322265625,2.9375,-3.0,-0.5,34.85546875
262,0.93994140625,0.1884765625,0.302978515625,2.9375,-4.0625,0.3125,34.85546875
264,0.93994140625,0.1884765625,0.302978515625,2.9375,-4.0625,0.3125,34.85546875
266,0.939453125,0.186279296875,0.300537109375,2.9375,-4.8125,0.6875,34.890625
269,0.939453125,0.18359375,0.29345703125,2.9375,-5.75,0.875,34.890625
271,0.9375,0.18359375,0.29345703125,2.9375,-5.75,0.875,34.890625
273,0.9375,0.18359375,0.29345703125,2.9375,-5.75,0.875,34.890625
275,0.93701171875,0.179931640625,0.285400390625,2.6875,-6.5625,1.0,34.890625
277,0.93701171875,0.179931640625,0.285400390625,2.6875,-6.5625,1.0,34.890625
279,0.93603515625,0.17724609375,0.273681640625,2.75,-7.1875,1.0625,34.890625
281,0.93603515625,0.17724609375,0.273681640625,2.75,-7.1875,1.0625,34.890625
283,0.939208984375,0.1787109375,0.2578125,2.8125,-7.625,1.0625,34.890625
285,0.939208984375,0.1787109375,0.2578125,2.8125,-7.625,1.0625,34.890625
287,0.939208984375,0.1787109375,0.2578125,2.8125,-7.625,0.9375,34.890625
289,0.943115234375,0.183837890625,0.24462890625,3.0,-7.875,0.9375,34.890625
291,0.943115234375,0.183837890625,0.24462890625,3.0,-7.875,0.9375,34.890625
293,0.94482421875,0.1875,0.23291015625,3.875,-7.5,0.4375,34.890625
295,0.94482421875,0.1875,0.23291015625,3.875,-7.5,0.4375,34.890625
297,0.9453125,0.191650390625,0.224365234375,5.375,-6.5625,-0.75,34.890625
299,0.9453125,0.191650390625,0.224365234375,5.375,-6.5625,-0.75,34.890625
301,0.948974609375,0.1982421875,0.21630859375,7.3125,-5.1875,-2.0625,34.890625
303,0.948974609375,0.1982421875,0.21630859375,7.3125,-5.1875,-2.0625,34.890625
305,0.962646484375,0.2041015625,0.20654296875,9.375,-3.375,-3.4375,34.890625
307,0.962646484375,0.2041015625,0.20654296875,9.375,-3.375,-3.4375,34.890625
309,0.962646484375,0.2041015625,0.20654296875,9.375,-3.375,-4.9375,34.890625
311,0.978515625,0.2080078125,0.19873046875,11.4375,-1.125,-4.9375,34.890625
313,0.978515625,0.2080078125,0.19873046875,11.4375,-1.125,-4.9375,34.890625
314,0.99169921875,0.211669921875,0.192138671875,13.6875,1.0,-6.4375,34.890625
317,0.99169921875,0.211669921875,0.192138671875,13.6875,1.0,-6.4375,34.890625
319,1.00146484375,0.212890625,0.19482421875,16.0,3.6875,-7.8125,34.890625
321,1.00146484375,0.212890625,0.19482421875,16.0,3.6875,-7.8125,34.890625
323,1.01025390625,0.209228515625,0.208740234375,18.6875,7.0,-8.6875,34.890625
325,1.01025390625,0.209228515625,0.208740234375,18.6875,7.0,-8.6875,34.890625
327,1.01025390625,0.209228515625,0.228515625,21.0625,10.8125,-8.75,34.890625
329,1.024169921875,0.201416015625,0.228515625,21.0625,10.8125,-8.75,34.890625
331,1.024169921875,0.201416015625,0.228515625,21.0625,10.8125,-8.75,34.890625
333,1.037353515625,0.183837890625,0.24365234375,23.0,13.6875,-8.3125,34.890625
334,1.037353515625,0.183837890625,0.24365234375,23.0,13.6875,-8.3125,34.890625
336,1.052001953125,0.161865234375,0.250244140625,23.5625,15.75,-7.25,34.890625
338,1.052001953125,0.161865234375,0.250244140625,23.5625,15.75,-7.25,34.890625
341,1.0625,0.14697265625,0.252685546875,22.4375,17.0,-5.6875,34.890625
343,1.0625,0.14697265625,0.252685546875,22.4375,17.0,-5.6875,34.890625
345,1.068115234375,0.140380859375,0.256591796875,20.3125,17.0,-3.6875,34.890625
347,1.068115234375,0.140380859375,0.256591796875,20.3125,17.0,-3.6875,34.890625
348,1.068115234375,0.140380859375,0.256591796875,20.3125,17.0,-3.6875,34.890625
350,1.07177734375,0.146240234375,0.26123046875,18.0,16.3125,-1.25,34.890625
352,1.07177734375,0.146240234375,0.26123046875,18.0,16.3125,-1.25,34.890625
354,1.076416015625,0.160400390625,0.260986328125,16.1875,15.125,1.125,34.890625
356,1.076416015625,0.160400390625,0.260986328125,16.1875,15.125,1.125,34.890625
358,1.083984375,0.1767578125,0.25048828125,15.5,13.0,3.375,34.890625
360,1.083984375,0.1767578125,0.25048828125,15.5,13.0,3.375,34.890625
362,1.083984375,0.193115234375,0.229736328125,16.125,10.0625,5.1875,34.890625
365,1.095703125,0.193115234375,0.229736328125,16.125,10.0625,5.1875,34.890625
367,1.107666015625,0.209716796875,0.202880859375,17.75,6.625,6.875,34.890625
369,1.107666015625,0.209716796875,0.202880859375,17.75,6.625,6.875,34.890625
371,1.107666015625,0.209716796875,0.202880859375,17.75,6.625,6.875,34.890625
372,1.123046875,0.2294921875,0.16845703125,19.75,2.6875,8.0625,34.890625
374,1.123046875,0.2294921875,0.16845703125,19.75,2.6875,8.0625,34.890625
377,1.14111328125,0.251953125,0.126708984375,21.6875,-1.1875,9.1875,34.890625
378,1.14111328125,0.251953125,0.126708984375,21.6875,-1.1875,9.1875,34.890625
380,1.160400390625,0.277587890625,0.079345703125,23.4375,-4.4375,10.5,34.890625
382,1.160400390625,0.277587890625,0.079345703125,23.4375,-4.4375,10.5,34.890625
384,1.160400390625,0.277587890625,0.03857421875,26.0,-7.0,12.625,34.890625
387,1.171142578125,0.30419921875,0.03857421875,26.0,-7.0,12.625,34.890625
389,1.190185546875,0.337890625,-0.012451171875,28.6875,-8.5625,15.125,34.890625
391,1.190185546875,0.337890625,-0.012451171875,28.6875,-8.5625,15.125,34.890625
393,1.190185546875,0.337890625,-0.012451171875,28.6875,-8.5625,15.125,34.890625
395,1.209228515625,0.362060546875,-0.066162109375,30.625,-10.1875,17.625,34.890625
397,1.209228515625,0.362060546875,-0.066162109375,30.625,-10.1875,17.625,34.890625
399,1.20947265625,0.367431640625,-0.0966796875,33.5625,-12.5,21.0625,34.890625
401,1.20947265625,0.367431640625,-0.0966796875,33.5625,-12.5,21.0625,34.890625
403,1.201904296875,0.357177734375,-0.131103515625,37.375,-14.75,26.5,34.890625
405,1.201904296875,0.357177734375,-0.131103515625,37.375,-14.75,26.5,34.890625
406,1.201904296875,0.324951171875,-0.179443359375,41.6875,-17.1875,33.875,34.890625
408,1.201904296875,0.324951171875,-0.179443359375,41.6875,-17.1875,33.875,34.8828125
411,1.20166015625,0.278076171875,-0.2333984375,44.625,-20.0625,42.5,34.8828125
413,1.20166015625,0.278076171875,-0.2333984375,44.625,-20.0625,42.5,34.8828125
415,1.20166015625,0.278076171875,-0.2333984375,44.625,-20.0625,42.5,34.8828125
417,1.188720703125,0.211181640625,-0.286376953125,45.75,-23.125,51.25,34.8828125
419,1.188720703125,0.211181640625,-0.286376953125,45.75,-23.125,51.25,34.8828125
421,1.1708984375,0.141357421875,-0.325439453125,45.625,-25.9375,59.625,34.8828125
423,1.1708984375,0.141357421875,-0.325439453125,45.625,-25.9375,59.625,34.8828125
424,1.157958984375,0.075439453125,-0.3583984375,43.125,-28.0625,67.9375,34.8828125
426,1.157958984375,0.075439453125,-0.3583984375,43.125,-28.0625,67.9375,34.8828125
428,1.157958984375,0.075439453125,-0.3583984375,43.125,-28.0625,67.9375,34.8828125
430,1.15380859375,0.0107421875,-0.390380859375,39.5625,-29.75,76.375,34.8828125
433,1.15380859375,0.0107421875,-0.426513671875,36.5,-31.3125,84.0,34.8828125
435,1.156005859375,-0.052490234375,-0.426513671875,36.5,-31.3125,84.0,34.8828125
437,1.156005859375,-0.052490234375,-0.426513671875,36.5,-31.3125,84.0,34.8828125
438,1.15576171875,-0.115478515625,-0.4638671875,33.625,-33.75,90.875,34.8828125
440,1.15576171875,-0.115478515625,-0.4638671875,33.625,-33.75,90.875,34.8828125
443,1.151611328125,-0.176025390625,-0.505859375,30.625,-37.25,96.125,34.8828125
445,1.151611328125,-0.176025390625,-0.505859375,30.625,-37.25,96.125,34.8828125
447,1.140869140625,-0.230224609375,-0.549560546875,27.125,-41.5625,99.3125,34.8828125
448,1.140869140625,-0.230224609375,-0.549560546875,27.125,-41.5625,99.3125,34.8828125
450,1.140869140625,-0.230224609375,-0.549560546875,27.125,-41.5625,99.3125,34.8828125
452,1.126708984375,-0.271240234375,-0.59423828125,22.875,-45.5,100.8125,34.8828125
455,1.126708984375,-0.271240234375,-0.59423828125,22.875,-45.5,100.875,34.8828125
457,1.103515625,-0.300537109375,-0.629638671875,18.5,-48.4375,100.875,34.8828125
459,1.103515625,-0.300537109375,-0.629638671875,18.5,-48.4375,100.875,34.8828125
461,1.07470703125,-0.3212890625,-0.662353515625,15.125,-50.3125,99.5625,34.8828125
462,1.07470703125,-0.3212890625,-0.662353515625,15.125,-50.3125,99.5625,34.8828125
465,1.041748046875,-0.3310546875,-0.6943359375,13.0,-50.4375,96.8125,34.8828125
467,1.041748046875,-0.3310546875,-0.6943359375,13.0,-50.4375,96.8125,34.8828125
469,1.00439453125,-0.327880859375,-0.7119140625,11.25,-48.9375,93.4375,34.8828125
471,1.00439453125,-0.327880859375,-0.7119140625,11.25,-48.9375,93.4375,34.8828125
472,1.00439453125,-0.327880859375,-0.7119140625,11.25,-48.9375,93.4375,34.8828125
474,0.970458984375,-0.316650390625,-0.719970703125,10.0,-45.5625,89.0,34.8828125
478,0.9482421875,-0.304443359375,-0.72412109375,9.75,-40.125,84.125,34.8828125
480,0.9482421875,-0.304443359375,-0.72412109375,9.75,-40.125,84.125,34.8828125
482,0.9482421875,-0.304443359375,-0.72412109375,9.75,-40.125,79.8125,34.8828125
483,0.943359375,-0.29736328125,-0.72607421875,10.1875,-32.75,79.8125,34.8828125
485,0.943359375,-0.29736328125,-0.72607421875,10.1875,-32.75,79.8125,34.8828125
487,0.94677734375,-0.291748046875,-0.731689453125,10.875,-24.1875,76.4375,34.8828125
490,0.94677734375,-0.291748046875,-0.731689453125,10.875,-24.1875,76.4375,34.8828125
491,0.9541015625,-0.28271484375,-0.727783203125,11.4375,-15.375,73.9375,34.8828125
493,0.9541015625,-0.28271484375,-0.727783203125,11.4375,-15.375,73.9375,34.8828125
495,0.956787109375,-0.277587890625,-0.713134765625,11.1875,-6.0,72.0625,34.8828125
497,0.956787109375,-0.277587890625,-0.713134765625,11.1875,-6.0,72.0625,34.8828125
500,0.966064453125,-0.273193359375,-0.6875,10.125,3.8125,70.0,34.8828125
502,0.966064453125,-0.273193359375,-0.6875,10.125,3.8125,70.0,34.8828125
504,0.966064453125,-0.273193359375,-0.6875,10.125,13.5,68.125,34.8828125
506,0.99072265625,-0.272705078125,-0.65869140625,8.3125,13.5,68.125,34.8828125
508,0.99072265625,-0.272705078125,-0.65869140625,8.3125,13.5,68.125,34.8828125
509,1.02685546875,-0.27880859375,-0.6298828125,6.0,22.8125,66.9375,34.8828125
512,1.02685546875,-0.27880859375,-0.6298828125,6.0,22.8125,66.9375,34.8828125
514,1.062255859375,-0.282470703125,-0.599609375,2.75,31.25,66.25,34.8828125
515,1.062255859375,-0.282470703125,-0.599609375,2.75,31.25,66.25,34.8828125
517,1.095947265625,-0.28125,-0.571044921875,-1.1875,38.1875,65.75,34.8828125
519,1.095947265625,-0.28125,-0.571044921875,-1.1875,38.1875,65.75,34.8828125
521,1.095947265625,-0.28125,-0.571044921875,-1.1875,38.1875,65.75,34.8828125
524,1.13916015625,-0.27197265625,-0.544921875,-5.8125,44.25,64.3125,34.8828125
526,1.13916015625,-0.27197265625,-0.544921875,-5.8125,44.25,64.3125,34.8828125
528,1.193115234375,-0.249267578125,-0.516845703125,-10.0625,49.5,62.375,34.8828125
530,1.193115234375,-0.249267578125,-0.516845703125,-10.0625,49.5,62.375,34.8828125
532,1.235595703125,-0.21484375,-0.47998046875,-13.1875,53.4375,59.5,34.8828125
534,1.235595703125,-0.21484375,-0.47998046875,-13.1875,53.4375,59.5,34.8828125
536,1.2607421875,-0.174072265625,-0.41943359375,-14.25,56.4375,54.8125,34.8828125
538,1.2607421875,-0.174072265625,-0.41943359375,-14.25,56.4375,54.8125,34.8828125
540,1.274169921875,-0.133056640625,-0.339599609375,-13.0625,58.25,48.1875,34.8828125
542,1.274169921875,-0.133056640625,-0.339599609375,-13.0625,58.25,48.1875,34.8828125
543,1.274169921875,-0.133056640625,-0.339599609375,-13.0625,58.25,48.1875,34.8828125
546,1.28515625,-0.090576171875,-0.25634765625,-10.6875,59.0,40.875,34.8828125
548,1.28515625,-0.090576171875,-0.25634765625,-7.4375,58.875,33.3125,34.8828125
550,1.305908203125,-0.04931640625,-0.185546875,-7.4375,58.875,33.3125,34.8671875
552,1.305908203125,-0.04931640625,-0.185546875,-7.4375,58.875,33.3125,34.8671875
554,1.330078125,-0.007568359375,-0.13818359375,-3.875,57.9375,26.3125,34.8671875
556,1.330078125,-0.007568359375,-0.13818359375,-3.875,57.9375,26.3125,34.8671875
558,1.35107421875,0.03955078125,-0.102783203125,-0.5625,56.25,20.25,34.8671875
560,1.35107421875,0.03955078125,-0.102783203125,-0.5625,56.25,20.25,34.8671875
562,1.3642578125,0.088623046875,-0.071044921875,1.5,54.0,15.9375,34.8671875
564,1.3642578125,0.088623046875,-0.071044921875,1.5,54.0,15.9375,34.8671875
566,1.3642578125,0.088623046875,-0.071044921875,1.5,54.0,15.9375,34.8671875
568,1.373779296875,0.137939453125,-0.0498046875,2.25,52.125,14.0625,34.8671875
570,1.373779296875,0.137939453125,-0.0498046875,2.0,50.75,15.25,34.8671875
572,1.38427734375,0.17724609375,-0.039794921875,2.0,50.75,15.25,34.8671875
574,1.38427734375,0.17724609375,-0.039794921875,2.0,50.75,15.25,34.8671875
576,1.393798828125,0.20068359375,-0.037841796875,0.6875,49.5,19.4375,34.8671875
578,1.393798828125,0.20068359375,-0.037841796875,0.6875,49.5,19.4375,34.8671875
580,1.402587890625,0.2099609375,-0.0419921875,-2.0,48.4375,26.3125,34.8671875
582,1.402587890625,0.2099609375,-0.0419921875,-2.0,48.4375,26.3125,34.8671875
584,1.40478515625,0.20068359375,-0.0458984375,-6.3125,47.9375,35.5,34.8671875
586,1.40478515625,0.20068359375,-0.0458984375,-6.3125,47.9375,35.5,34.8671875
588,1.40478515625,0.20068359375,-0.0458984375,-6.3125,47.9375,47.125,34.8671875
590,1.3935546875,0.171875,-0.046630859375,-11.9375,48.0625,47.125,34.8671875
592,1.3935546875,0.171875,-0.046630859375,-11.9375,48.0625,47.125,34.8671875
594,1.371826171875,0.126220703125,-0.044921875,-19.5625,48.625,59.6875,34.8671875
596,1.371826171875,0.126220703125,-0.044921875,-19.5625,48.625,59.6875,34.8671875
598,1.34912109375,0.072021484375,-0.044677734375,-28.875,50.375,72.5625,34.8671875
600,1.34912109375,0.072021484375,-0.044677734375,-28.875,50.375,72.5625,34.8671875
602,1.333984375,0.021728515625,-0.049072265625,-38.875,53.5,84.375,34.8671875
604,1.333984375,0.021728515625,-0.049072265625,-38.875,53.5,84.375,34.8671875
606,1.314697265625,-0.024658203125,-0.05126953125,-48.6875,57.75,93.6875,34.8671875
608,1.314697265625,-0.024658203125,-0.05126953125,-48.6875,57.75,93.6875,34.8671875
610,1.314697265625,-0.024658203125,-0.031982421875,-58.5625,62.4375,100.8125,34.8671875
612,1.285400390625,-0.06201171875,-0.031982421875,-58.5625,62.4375,100.8125,34.8671875
614,1.285400390625,-0.06201171875,-0.031982421875,-58.5625,62.4375,100.8125,34.8671875
617,1.23583984375,-0.08740234375,0.014404296875,-68.375,66.5625,106.875,34.8671875
619,1.23583984375,-0.08740234375,0.014404296875,-68.375,66.5625,106.875,34.8671875
622,1.194580078125,-0.125244140625,0.103515625,-74.75,71.5625,111.125,34.8671875
624,1.16845703125,-0.1630859375,0.1650390625,-74.8125,77.625,111.1875,34.8671875
626,1.16845703125,-0.1630859375,0.1650390625,-74.8125,77.625,111.1875,34.8671875
628,1.16845703125,-0.1630859375,0.1650390625,-74.8125,84.0625,108.125,34.8671875
630,1.11376953125,-0.181396484375,0.198974609375,-72.9375,84.0625,108.125,34.8671875
632,1.11376953125,-0.181396484375,0.198974609375,-72.9375,84.0625,108.125,34.8671875
634,1.069580078125,-0.223388671875,0.232421875,-71.6875,88.8125,103.3125,34.8671875
636,1.069580078125,-0.223388671875,0.232421875,-71.6875,88.8125,103.3125,34.8671875
638,1.021484375,-0.27685546875,0.251953125,-70.3125,93.0625,97.625,34.8671875
640,1.021484375,-0.27685546875,0.251953125,-70.3125,93.0625,97.625,34.8671875
642,0.946533203125,-0.311279296875,0.27880859375,-68.4375,96.4375,91.25,34.8671875
644,0.946533203125,-0.311279296875,0.27880859375,-68.4375,96.4375,91.25,34.8671875
646,0.8583984375,-0.333251953125,0.336181640625,-67.6875,99.0625,85.0625,34.8671875
648,0.8583984375,-0.333251953125,0.336181640625,-67.6875,99.0625,85.0625,34.8671875
650,0.8583984375,-0.333251953125,0.408447265625,-69.4375,101.625,79.125,34.8671875
652,0.77978515625,-0.344482421875,0.408447265625,-69.4375,101.625,79.125,34.8671875
654,0.77978515625,-0.344482421875,0.408447265625,-69.4375,101.625,79.125,34.8671875
656,0.708740234375,-0.35595703125,0.470458984375,-72.25,103.875,74.1875,34.8671875
658,0.708740234375,-0.35595703125,0.470458984375,-72.25,103.875,74.1875,34.8671875
660,0.631591796875,-0.3642578125,0.521484375,-74.3125,105.0625,69.875,34.8671875
662,0.631591796875,-0.3642578125,0.521484375,-74.3125,105.0625,69.875,34.8671875
664,0.5478515625,-0.348876953125,0.57373046875,-75.75,104.0625,66.25,34.8671875
666,0.5478515625,-0.348876953125,0.57373046875,-75.75,104.0625,66.25,34.8671875
669,0.474609375,-0.3154296875,0.63916015625,-76.75,101.0,62.875,34.8671875
670,0.474609375,-0.3154296875,0.63916015625,-76.75,101.0,62.875,34.8671875
672,0.409423828125,-0.285888671875,0.712890625,-76.5,97.5,59.1875,34.8671875
674,0.409423828125,-0.285888671875,0.712890625,-76.5,97.5,59.1875,34.8671875
676,0.409423828125,-0.285888671875,0.712890625,-76.5,97.5,59.1875,34.8671875
678,0.34326171875,-0.268310546875,0.77978515625,-73.75,94.875,54.4375,34.8671875
680,0.34326171875,-0.268310546875,0.77978515625,-73.75,94.875,54.4375,34.8671875
683,0.26953125,-0.2607421875,0.825439453125,-69.3125,94.3125,49.0625,34.8671875
685,0.26953125,-0.2607421875,0.825439453125,-69.3125,94.3125,49.0625,34.8671875
687,0.1962890625,-0.262939453125,0.86083984375,-65.5625,95.4375,44.1875,34.8671875
689,0.1962890625,-0.262939453125,0.86083984375,-65.5625,95.4375,44.1875,34.8671875
691,0.1298828125,-0.265869140625,0.90185546875,-63.4375,98.0625,39.875,34.890625
693,0.1298828125,-0.265869140625,0.90185546875,-63.4375,98.0625,39.875,34.890625
695,0.064208984375,-0.268310546875,0.94775390625,-63.25,102.75,35.75,34.890625
697,0.064208984375,-0.268310546875,0.94775390625,-63.25,102.75,35.75,34.890625
699,0.064208984375,-0.268310546875,0.999755859375,-64.3125,109.0625,32.1875,34.890625
701,-0.00732421875,-0.28369140625,0.999755859375,-64.3125,109.0625,32.1875,34.890625
703,-0.00732421875,-0.28369140625,0.999755859375,-64.3125,109.0625,32.1875,34.890625
705,-0.078125,-0.3037109375,1.050048828125,-65.375,116.625,29.1875,34.890625
707,-0.078125,-0.3037109375,1.050048828125,-65.375,116.625,29.1875,34.890625
709,-0.152099609375,-0.32080078125,1.103271484375,-66.5625,124.9375,26.4375,34.890625
711,-0.152099609375,-0.32080078125,1.103271484375,-66.5625,124.9375,26.4375,34.890625
713,-0.216064453125,-0.327880859375,1.156494140625,-69.5,134.8125,23.4375,34.890625
715,-0.216064453125,-0.327880859375,1.156494140625,-69.5,134.8125,23.4375,34.890625
717,-0.26611328125,-0.333251953125,1.204345703125,-74.25,148.0,19.375,34.890625
719,-0.26611328125,-0.333251953125,1.204345703125,-74.25,148.0,19.375,34.890625
721,-0.26611328125,-0.333251953125,1.2470703125,-77.9375,161.0625,14.125,34.890625
723,-0.3154296875,-0.35546875,1.2470703125,-77.9375,161.0625,14.125,34.890625
725,-0.3154296875,-0.35546875,1.2470703125,-77.9375,161.0625,14.125,34.890625
727,-0.357177734375,-0.387451171875,1.2666015625,-79.3125,171.75,7.375,34.890625
729,-0.357177734375,-0.387451171875,1.2666015625,-79.3125,171.75,7.375,34.890625
731,-0.390625,-0.40478515625,1.277099609375,-78.625,180.375,-1.0,34.890625
733,-0.390625,-0.40478515625,1.277099609375,-78.625,180.375,-1.0,34.890625
735,-0.415771484375,-0.399169921875,1.3046875,-77.6875,188.5,-11.5,34.890625
737,-0.415771484375,-0.399169921875,1.3046875,-77.6875,188.5,-11.5,34.890625
739,-0.427978515625,-0.379638671875,1.365478515625,-77.8125,197.25,-24.5,34.890625
741,-0.427978515625,-0.379638671875,1.365478515625,-77.8125,197.25,-24.5,34.890625
743,-0.429443359375,-0.35107421875,1.457275390625,-78.0,206.1875,-39.875,34.890625
745,-0.429443359375,-0.35107421875,1.457275390625,-78.0,206.1875,-39.875,34.890625
747,-0.429443359375,-0.35107421875,1.519775390625,-79.3125,214.8125,-57.0,34.890625
749,-0.422119140625,-0.3134765625,1.555908203125,-79.3125,214.8125,-57.0,34.890625
751,-0.422119140625,-0.3134765625,1.555908203125,-79.3125,214.8125,-57.0,34.890625
754,-0.3876953125,-0.267822265625,1.661376953125,-79.25,221.8125,-76.0,34.890625
756,-0.3876953125,-0.267822265625,1.661376953125,-79.25,221.8125,-76.0,34.890625
758,-0.3291015625,-0.186279296875,1.761474609375,-76.125,225.875,-96.6875,34.890625
760,-0.3291015625,-0.186279296875,1.761474609375,-76.125,225.875,-96.6875,34.890625
762,-0.243896484375,-0.07958984375,1.85205078125,-71.8125,225.5,-117.4375,34.890625
764,-0.243896484375,-0.07958984375,1.85205078125,-71.8125,225.5,-117.4375,34.890625
766,-0.1396484375,0.02978515625,1.91943359375,-65.6875,221.375,-136.4375,34.890625
767,-0.1396484375,0.02978515625,1.91943359375,-65.6875,221.375,-136.4375,34.890625
770,-0.035888671875,0.13232421875,1.970458984375,-56.3125,213.875,-153.125,34.890625
772,-0.035888671875,0.13232421875,1.970458984375,-56.3125,213.875,-153.125,34.890625
774,-0.035888671875,0.13232421875,1.970458984375,-56.3125,213.875,-153.125,34.890625
776,0.056884765625,0.233642578125,1.99169921875,-44.4375,202.125,-167.4375,34.890625
778,0.056884765625,0.233642578125,1.99169921875,-44.4375,202.125,-167.4375,34.890625
780,0.14208984375,0.330810546875,1.991943359375,-32.125,186.6875,-178.1875,34.890625
782,0.14208984375,0.330810546875,1.991943359375,-32.125,186.6875,-178.1875,34.890625
784,0.226806640625,0.415771484375,1.9765625,-20.9375,168.4375,-184.25,34.890625
786,0.226806640625,0.415771484375,1.9765625,-20.9375,168.4375,-184.25,34.890625
788,0.310791015625,0.488037109375,1.942626953125,-12.5,148.4375,-184.75,34.890625
790,0.310791015625,0.488037109375,1.942626953125,-12.5,148.4375,-184.75,34.890625
792,0.397705078125,0.5390625,1.88232421875,-7.375,127.3125,-179.6875,34.890625
794,0.397705078125,0.5390625,1.88232421875,-7.375,127.3125,-179.6875,34.890625
796,0.460205078125,0.571044921875,1.7978515625,-6.0625,106.5,-167.5,34.890625
799,0.478759765625,0.571044921875,1.7978515625,-6.0625,106.5,-167.5,34.890625
800,0.478759765625,0.571044921875,1.7978515625,-6.0625,106.5,-149.0,34.890625
802,0.54443359375,0.587890625,1.708251953125,-7.4375,87.0625,-149.0,34.890625
805,0.54443359375,0.587890625,1.708251953125,-7.4375,87.0625,-149.0,34.890625
807,0.59765625,0.591796875,1.620849609375,-10.75,69.25,-125.1875,34.890625
809,0.59765625,0.591796875,1.620849609375,-10.75,69.25,-125.1875,34.890625
811,0.64404296875,0.5810546875,1.53515625,-15.5625,53.5625,-98.375,34.890625
812,0.64404296875,0.5810546875,1.53515625,-15.5625,53.5625,-98.375,34.890625
815,0.6787109375,0.551025390625,1.46142578125,-21.4375,39.0625,-70.0,34.890625
817,0.6787109375,0.551025390625,1.46142578125,-21.4375,39.0625,-70.0,34.890625
819,0.6943359375,0.506103515625,1.40869140625,-26.75,25.3125,-41.0625,34.890625
821,0.6943359375,0.506103515625,1.40869140625,-26.75,25.3125,-41.0625,34.890625
823,0.701904296875,0.4521484375,1.37060546875,-31.375,11.875,-12.8125,34.890625
825,0.701904296875,0.4521484375,1.37060546875,-31.375,11.875,-12.8125,34.890625
827,0.701904296875,0.4521484375,1.37060546875,-34.4375,-0.4375,13.4375,34.890625
829,0.70947265625,0.38525390625,1.340087890625,-34.4375,-0.4375,13.4375,34.890625
831,0.70947265625,0.38525390625,1.340087890625,-34.4375,-0.4375,13.4375,34.890625
833,0.712646484375,0.30322265625,1.317138671875,-35.9375,-11.6875,36.0625,34.90625
835,0.712646484375,0.30322265625,1.317138671875,-35.9375,-11.6875,36.0625,34.90625
837,0.7158203125,0.213623046875,1.291748046875,-37.0,-22.25,53.8125,34.90625
839,0.7158203125,0.213623046875,1.291748046875,-37.0,-22.25,53.8125,34.90625
841,0.7138671875,0.1201171875,1.259521484375,-37.3125,-32.0,67.0,34.90625
843,0.7138671875,0.1201171875,1.259521484375,-37.3125,-32.0,67.0,34.90625
844,0.7138671875,0.1201171875,1.259521484375,-37.3125,-32.0,67.0,34.90625
847,0.70703125,0.036865234375,1.224853515625,-36.875,-41.125,75.375,34.90625
849,0.70703125,0.036865234375,1.224853515625,-36.875,-41.125,75.375,34.90625
851,0.6962890625,-0.03515625,1.19287109375,-35.5,-49.6875,79.3125,34.90625
853,0.6962890625,-0.03515625,1.19287109375,-35.5,-49.6875,79.3125,34.90625
855,0.6796875,-0.08935546875,1.170654296875,-32.1875,-57.625,79.6875,34.90625
856,0.6796875,-0.08935546875,1.170654296875,-32.1875,-57.625,79.6875,34.90625
858,0.6796875,-0.128662109375,1.15771484375,-26.375,-64.0,76.3125,34.90625
861,0.660888671875,-0.128662109375,1.15771484375,-26.375,-64.0,76.3125,34.90625
862,0.660888671875,-0.128662109375,1.15771484375,-26.375,-64.0,76.3125,34.90625
864,0.6337890625,-0.155517578125,1.1533203125,-18.0625,-69.3125,69.8125,34.90625
866,0.6337890625,-0.155517578125,1.1533203125,-18.0625,-69.3125,69.8125,34.90625
868,0.591064453125,-0.1767578125,1.1494140625,-8.4375,-74.125,60.125,34.90625
871,0.591064453125,-0.1767578125,1.1494140625,-8.4375,-74.125,60.125,34.90625
873,0.55517578125,-0.192626953125,1.132080078125,2.0,-79.3125,48.4375,34.90625
875,0.55517578125,-0.192626953125,1.132080078125,2.0,-79.3125,48.4375,34.90625
877,0.527099609375,-0.20458984375,1.103759765625,12.625,-83.875,36.5625,34.90625
878,0.527099609375,-0.20458984375,1.103759765625,12.625,-83.875,36.5625,34.90625
880,0.527099609375,-0.21435546875,1.06689453125,22.5625,-87.25,25.5625,34.90625
883,0.507568359375,-0.21435546875,1.06689453125,22.5625,-87.25,25.5625,34.90625
885,0.507568359375,-0.21435546875,1.06689453125,22.5625,-87.25,16.1875,34.90625
886,0.486328125,-0.22265625,1.0341796875,30.75,-88.9375,16.1875,34.90625
888,0.486328125,-0.22265625,1.0341796875,30.75,-88.9375,16.1875,34.90625
891,0.458984375,-0.233642578125,1.009033203125,36.75,-89.6875,9.0,34.90625
893,0.458984375,-0.233642578125,1.009033203125,36.75,-89.6875,9.0,34.90625
895,0.435302734375,-0.24462890625,0.97998046875,40.0625,-89.75,4.4375,34.90625
897,0.435302734375,-0.24462890625,0.97998046875,40.0625,-89.75,4.4375,34.90625
900,0.42236328125,-0.25537109375,0.938232421875,40.25,-88.8125,3.75,34.90625
901,0.42236328125,-0.25537109375,0.938232421875,40.25,-88.8125,3.75,34.90625
903,0.41455078125,-0.261962890625,0.896728515625,38.125,-87.0,6.625,34.90625
906,0.41455078125,-0.261962890625,0.896728515625,38.125,-87.0,6.625,34.90625
907,0.404296875,-0.260009765625,0.87109375,34.125,-84.9375,12.4375,34.90625
909,0.404296875,-0.260009765625,0.87109375,34.125,-84.9375,12.4375,34.90625
911,0.404296875,-0.260009765625,0.87109375,18.125,-82.25,19.8125,34.90625
913,0.391357421875,-0.250732421875,0.8623046875,28.75,-82.25,19.8125,34.90625
915,0.391357421875,-0.250732421875,0.8623046875,28.75,-82.25,19.8125,34.90625
917,0.37890625,-0.229736328125,0.865478515625,22.6875,-79.0,27.375,34.90625
919,0.37890625,-0.229736328125,0.865478515625,22.6875,-79.0,27.375,34.90625
921,0.369140625,-0.19482421875,0.876953125,16.5,-75.6875,34.3125,34.90625
923,0.369140625,-0.19482421875,0.876953125,16.5,-75.6875,34.3125,34.90625
925,0.3720703125,-0.145751953125,0.896484375,11.125,-72.3125,40.0625,34.90625
927,0.3720703125,-0.145751953125,0.896484375,11.125,-72.3125,40.0625,34.90625
929,0.393798828125,-0.0927734375,0.9150390625,8.25,-69.5625,43.375,34.90625
931,0.393798828125,-0.0927734375,0.9150390625,8.25,-69.5625,43.375,34.90625
933,0.393798828125,-0.0927734375,0.9150390625,8.25,-69.5625,43.375,34.90625
935,0.42529296875,-0.0478515625,0.9365234375,9.0625,-67.4375,44.0625,34.90625
937,0.42529296875,-0.0478515625,0.9365234375,9.0625,-67.4375,44.0625,34.90625
939,0.44921875,-0.01123046875,0.95751953125,13.75,-65.625,42.375,34.90625
941,0.44921875,-0.01123046875,0.95751953125,13.75,-65.625,42.375,34.90625
943,0.46533203125,0.013671875,0.988037109375,20.9375,-65.0,39.0625,34.90625
945,0.46533203125,0.013671875,0.988037109375,20.9375,-65.0,39.0625,34.90625
947,0.481689453125,0.012451171875,1.0283203125,29.25,-66.0,35.0,34.90625
949,0.481689453125,0.012451171875,1.0283203125,29.25,-66.0,35.0,34.90625
951,0.50244140625,-0.01708984375,1.0546875,38.0625,-67.9375,31.75,34.90625
953,0.50244140625,-0.01708984375,1.0546875,38.0625,-67.9375,31.75,34.90625
955,0.50244140625,-0.01708984375,1.0546875,38.0625,-67.9375,31.75,34.90625
957,0.514404296875,-0.062255859375,1.06640625,45.25,-69.875,30.0625,34.90625
959,0.514404296875,-0.062255859375,1.06640625,45.25,-69.875,30.0625,34.90625
961,0.50830078125,-0.1162109375,1.078369140625,48.1875,-72.0,29.75,34.90625
963,0.50830078125,-0.1162109375,1.078369140625,48.1875,-72.0,29.75,34.90625
965,0.494140625,-0.171630859375,1.108642578125,46.3125,-73.375,29.1875,34.90625
968,0.494140625,-0.171630859375,1.108642578125,46.3125,-73.375,29.1875,34.90625
970,0.47900390625,-0.21728515625,1.14453125,40.25,-74.125,28.375,34.90625
972,0.47900390625,-0.21728515625,1.14453125,40.25,-74.125,28.375,34.90625
974,0.466064453125,-0.24560546875,1.171875,31.875,-74.9375,27.4375,34.94140625
976,0.466064453125,-0.24560546875,1.171875,31.875,-74.9375,27.4375,34.94140625
978,0.466064453125,-0.24560546875,1.171875,31.875,-74.9375,25.8125,34.94140625
980,0.470947265625,-0.2607421875,1.176513671875,23.4375,-77.0,25.8125,34.94140625
982,0.470947265625,-0.2607421875,1.176513671875,23.4375,-77.0,25.8125,34.94140625
984,0.49609375,-0.263427734375,1.142333984375,15.5625,-81.875,21.8125,34.94140625
986,0.49609375,-0.263427734375,1.142333984375,15.5625,-81.875,21.8125,34.94140625
988,0.526611328125,-0.251220703125,1.081787109375,9.3125,-89.25,14.9375,34.94140625
990,0.526611328125,-0.251220703125,1.081787109375,9.3125,-89.25,14.9375,34.94140625
992,0.54150390625,-0.2333984375,1.02587890625,5.5625,-97.25,7.0,34.94140625
994,0.54150390625,-0.2333984375,1.02587890625,5.5625,-97.25,7.0,34.94140625
996,0.529052734375,-0.2138671875,0.97607421875,4.375,-104.3125,-0.1875,34.94140625
998,0.529052734375,-0.2138671875,0.97607421875,4.375,-104.3125,-0.1875,34.94140625
1000,0.529052734375,-0.185302734375,0.923828125,5.0,-109.0625,-6.3125,34.94140625
1002,0.5009765625,-0.185302734375,0.923828125,5.0,-109.0625,-6.3125,34.94140625
1004,0.5009765625,-0.185302734375,0.923828125,5.0,-109.0625,-6.3125,34.94140625
1006,0.489013671875,-0.14794921875,0.86962890625,6.1875,-111.25,-11.5625,34.94140625
1008,0.489013671875,-0.14794921875,0.86962890625,6.1875,-111.25,-11.5625,34.94140625
1010,0.498291015625,-0.118896484375,0.8134765625,7.0625,-110.875,-16.75,34.94140625
1012,0.498291015625,-0.118896484375,0.8134765625,7.0625,-110.875,-16.75,34.94140625
1014,0.516845703125,-0.10107421875,0.751708984375,7.6875,-108.875,-21.5,34.94140625
1016,0.516845703125,-0.10107421875,0.751708984375,7.6875,-108.875,-21.5,34.94140625
1018,0.543212890625,-0.090087890625,0.6748046875,8.3125,-105.6875,-24.0625,34.94140625
1020,0.543212890625,-0.090087890625,0.6748046875,8.3125,-105.6875,-24.0625,34.94140625
1022,0.56591796875,-0.079345703125,0.60986328125,8.75,-101.4375,-23.25,34.94140625
1024,0.56591796875,-0.079345703125,0.60986328125,8.75,-101.4375,-23.25,34.94140625
1026,0.56591796875,-0.079345703125,0.60986328125,8.75,-101.4375,-23.25,34.94140625
1028,0.573974609375,-0.072509765625,0.572509765625,9.5,-95.8125,-19.625,34.94140625
1030,0.573974609375,-0.072509765625,0.572509765625,9.5,-95.8125,-19.625,34.94140625
1032,0.5830078125,-0.072265625,0.556640625,9.875,-87.8125,-14.25,34.94140625
1035,0.5830078125,-0.072265625,0.556640625,9.875,-87.8125,-14.25,34.94140625
1037,0.59375,-0.0810546875,0.55615234375,10.375,-78.25,-8.9375,34.94140625
1038,0.59375,-0.0810546875,0.55615234375,10.375,-78.25,-8.9375,34.94140625
1041,0.60693359375,-0.1025390625,0.5634765625,11.1875,-68.0625,-4.4375,34.94140625
1043,0.60693359375,-0.1025390625,0.5634765625,11.1875,-68.0625,-4.4375,34.94140625
1045,0.615966796875,-0.132080078125,0.57666015625,12.125,-58.125,-0.5,34.94140625
1046,0.615966796875,-0.132080078125,0.57666015625,12.125,-58.125,-0.5,34.94140625
1048,0.615966796875,-0.132080078125,0.57666015625,12.125,-58.125,-0.5,34.94140625
1050,0.612548828125,-0.160888671875,0.603759765625,13.4375,-49.375,2.0,34.94140625
1052,0.612548828125,-0.160888671875,0.603759765625,13.4375,-49.375,2.0,34.94140625
1054,0.602294921875,-0.18505859375,0.64404296875,15.625,-41.625,2.5,34.94140625
1057,0.602294921875,-0.18505859375,0.64404296875,15.625,-41.625,2.5,34.94140625
1059,0.58642578125,-0.2001953125,0.6884765625,18.375,-34.9375,0.5,34.94140625
1061,0.58642578125,-0.2001953125,0.6884765625,18.375,-34.9375,0.5,34.94140625
1063,0.57666015625,-0.20458984375,0.731201171875,21.8125,-29.3125,-4.125,34.94140625
1065,0.57666015625,-0.20458984375,0.731201171875,21.8125,-29.3125,-4.125,34.94140625
1067,0.57421875,-0.201171875,0.7685546875,26.4375,-25.625,-10.75,34.94140625
1068,0.57421875,-0.201171875,0.7685546875,26.4375,-25.625,-10.75,34.94140625
1070,0.57421875,-0.201171875,0.7685546875,26.4375,-25.625,-10.75,34.94140625
1072,0.583740234375,-0.19140625,0.796142578125,32.625,-23.5,-19.1875,34.94140625
1074,0.583740234375,-0.19140625,0.796142578125,32.625,-23.5,-19.1875,34.94140625
1076,0.62109375,-0.177978515625,0.79443359375,39.875,-24.125,-29.0,34.94140625
1078,0.62109375,-0.177978515625,0.79443359375,39.875,-24.125,-29.0,34.94140625
1081,0.671875,-0.15478515625,0.7431640625,46.75,-28.125,-40.1875,34.94140625
1083,0.671875,-0.15478515625,0.7431640625,46.75,-28.125,-40.1875,34.94140625
1085,0.712890625,-0.138671875,0.677001953125,54.0,-35.5,-51.375,34.94140625
1087,0.712890625,-0.138671875,0.677001953125,54.0,-35.5,-51.375,34.94140625
1089,0.71630859375,-0.11962890625,0.603759765625,61.75,-45.5,-61.0,34.94140625
1091,0.71630859375,-0.11962890625,0.603759765625,61.75,-45.5,-61.0,34.94140625
1092,0.71630859375,-0.11962890625,0.603759765625,61.75,-45.5,-61.0,34.94140625
1094,0.703369140625,-0.091064453125,0.533935546875,66.5,-55.1875,-66.875,34.94140625
1097,0.703369140625,-0.091064453125,0.533935546875,66.5,-55.1875,-66.875,34.94140625
1099,0.70556640625,-0.06689453125,0.46728515625,68.625,-62.5625,-69.75,34.94140625
1101,0.70556640625,-0.06689453125,0.46728515625,68.625,-62.5625,-69.75,34.94140625
1103,0.72216796875,-0.049560546875,0.390380859375,69.125,-66.875,-70.1875,34.94140625
1105,0.72216796875,-0.049560546875,0.390380859375,69.125,-66.875,-70.1875,34.94140625
1108,0.741943359375,-0.04345703125,0.307861328125,67.6875,-69.0625,-67.875,34.94140625
1109,0.741943359375,-0.04345703125,0.307861328125,67.6875,-69.0625,-67.875,34.94140625
1111,0.7451171875,-0.043212890625,0.236083984375,63.3125,-69.8125,-62.9375,34.94140625
1113,0.7451171875,-0.043212890625,0.236083984375,63.3125,-69.8125,-62.9375,34.94140625
1115,0.7451171875,-0.045166015625,0.186279296875,56.125,-69.0625,-55.0,34.94140625
1117,0.7294921875,-0.045166015625,0.186279296875,56.125,-69.0625,-55.0,34.93359375
1119,0.7294921875,-0.045166015625,0.186279296875,56.125,-69.0625,-55.0,34.93359375
1121,0.7177734375,-0.04736328125,0.17431640625,47.625,-66.1875,-45.3125,34.93359375
1123,0.7177734375,-0.04736328125,0.17431640625,47.625,-66.1875,-45.3125,34.93359375
1125,0.7080078125,-0.04345703125,0.173828125,38.5625,-60.625,-34.9375,34.93359375
1127,0.7080078125,-0.04345703125,0.173828125,38.5625,-60.625,-34.9375,34.93359375
1129,0.702880859375,-0.04052734375,0.17919921875,29.6875,-53.0625,-24.75,34.93359375
1132,0.702880859375,-0.04052734375,0.17919921875,29.6875,-53.0625,-24.75,34.93359375
1133,0.698974609375,-0.039306640625,0.19287109375,22.625,-44.4375,-16.0,34.93359375
1135,0.698974609375,-0.039306640625,0.19287109375,22.625,-44.4375,-16.0,34.93359375
1137,0.683837890625,-0.034912109375,0.21630859375,18.0625,-34.6875,-9.0625,34.93359375
1139,0.683837890625,-0.034912109375,0.21630859375,18.0625,-34.6875,-9.0625,34.93359375
1141,0.683837890625,-0.034912109375,0.21630859375,18.0625,-34.6875,-9.0625,34.93359375
1143,0.663818359375,-0.025146484375,0.26171875,15.5625,-24.25,-4.4375,34.93359375
1145,0.663818359375,-0.025146484375,0.26171875,15.5625,-24.25,-4.4375,34.93359375
1148,0.648193359375,-0.010498046875,0.31103515625,15.625,-13.625,-2.5625,34.93359375
1150,0.648193359375,-0.010498046875,0.31103515625,15.625,-13.625,-2.5625,34.93359375
1152,0.63427734375,0.001953125,0.353515625,17.5625,-3.5625,-3.25,34.93359375
1154,0.63427734375,0.001953125,0.353515625,17.5625,-3.5625,-3.25,34.93359375
1156,0.6171875,0.01220703125,0.39208984375,21.875,5.25,-5.6875,34.93359375
1158,0.6171875,0.01220703125,0.39208984375,21.875,5.25,-5.6875,34.93359375
1159,0.6171875,0.01220703125,0.43603515625,29.25,13.1875,-9.4375,34.93359375
1161,0.595458984375,0.0205078125,0.43603515625,29.25,13.1875,-9.4375,34.93359375
1163,0.595458984375,0.0205078125,0.43603515625,29.25,13.1875,-9.4375,34.93359375
1165,0.57421875,0.035400390625,0.460693359375,38.375,19.0625,-14.0,34.93359375
1167,0.57421875,0.035400390625,0.460693359375,38.375,19.0625,-14.0,34.93359375
1169,0.574462890625,0.043701171875,0.46337890625,49.25,22.125,-19.75,34.93359375
1172,0.574462890625,0.043701171875,0.46337890625,49.25,22.125,-19.75,34.93359375
1174,0.593994140625,0.052001953125,0.44677734375,61.5625,22.125,-25.4375,34.93359375
1176,0.593994140625,0.052001953125,0.44677734375,61.5625,22.125,-25.4375,34.93359375
1178,0.614990234375,0.056884765625,0.416015625,73.5625,19.25,-30.75,34.93359375
1180,0.614990234375,0.056884765625,0.416015625,73.5625,19.25,-30.75,34.93359375
1182,0.677490234375,0.051025390625,0.375244140625,84.0,13.8125,-35.875,34.93359375
1183,0.635009765625,0.051025390625,0.375244140625,84.0,13.8125,-35.875,34.93359375
1186,0.635009765625,0.051025390625,0.375244140625,84.0,13.8125,-35.875,34.93359375
1188,0.666259765625,0.042724609375,0.322509765625,92.25,7.0625,-40.8125,34.93359375
1190,0.666259765625,0.042724609375,0.322509765625,92.25,7.0625,-40.8125,34.93359375
1192,0.70263671875,0.03662109375,0.26318359375,97.0625,0.1875,-44.75,34.93359375
1194,0.70263671875,0.03662109375,0.26318359375,97.0625,0.1875,-44.75,34.93359375
1196,0.717529296875,0.02783203125,0.205810546875,98.125,-4.9375,-46.875,34.93359375
1198,0.717529296875,0.02783203125,0.205810546875,98.125,-4.9375,-46.875,34.93359375
1200,0.715576171875,0.02392578125,0.16943359375,95.1875,-8.625,-47.0,34.93359375
1202,0.715576171875,0.02392578125,0.16943359375,95.1875,-8.625,-47.0,34.93359375
1204,0.719482421875,0.02099609375,0.155029296875,88.75,-10.8125,-44.5625,34.93359375
1206,0.719482421875,0.02099609375,0.155029296875,88.75,-10.8125,-44.5625,34.93359375
1208,0.719482421875,0.02099609375,0.155029296875,88.75,-10.8125,-44.5625,34.93359375
1210,0.753173828125,0.006591796875,0.13818359375,81.0625,-11.375,-38.75,34.93359375
1212,0.753173828125,0.006591796875,0.13818359375,81.0625,-11.375,-38.75,34.93359375
1214,0.799072265625,-0.02587890625,0.114990234375,73.125,-9.625,-30.25,34.93359375
1216,0.799072265625,-0.02587890625,0.114990234375,73.125,-9.625,-30.25,34.93359375
1218,0.837158203125,-0.06982421875,0.10400390625,64.6875,-6.5,-20.125,34.93359375
1220,0.837158203125,-0.06982421875,0.10400390625,64.6875,-6.5,-20.125,34.93359375
1222,0.87255859375,-0.124267578125,0.1123046875,55.4375,-2.8125,-9.25,34.93359375
1224,0.87255859375,-0.124267578125,0.1123046875,55.4375,-2.8125,-9.25,34.93359375
1226,0.905517578125,-0.189453125,0.12841796875,45.5625,1.5,0.9375,34.93359375
1228,0.905517578125,-0.189453125,0.12841796875,45.5625,1.5,0.9375,34.93359375
1230,0.905517578125,-0.189453125,0.12841796875,45.5625,1.5,0.9375,34.93359375
1232,0.932861328125,-0.252685546875,0.145751953125,35.625,6.375,9.875,34.93359375
1234,0.932861328125,-0.252685546875,0.145751953125,35.625,6.375,9.875,34.93359375
1236,0.956787109375,-0.303466796875,0.175048828125,25.9375,10.3125,17.0625,34.93359375
1238,0.956787109375,-0.303466796875,0.175048828125,25.9375,10.3125,17.0625,34.93359375
1240,0.978759765625,-0.34375,0.21142578125,16.875,13.375,21.9375,34.93359375
1243,0.978759765625,-0.34375,0.21142578125,16.875,13.375,21.9375,34.93359375
1245,0.997314453125,-0.365478515625,0.254150390625,8.9375,16.625,24.5,34.93359375
1246,0.997314453125,-0.365478515625,0.254150390625,8.9375,16.625,24.5,34.93359375
1248,1.00537109375,-0.37255859375,0.291259765625,3.0,19.9375,24.9375,34.93359375
1250,1.00537109375,-0.37255859375,0.291259765625,3.0,19.9375,24.9375,34.93359375
1252,1.00537109375,-0.37255859375,0.291259765625,3.0,22.9375,22.5625,34.93359375
1255,1.015380859375,-0.372314453125,0.321044921875,0.375,22.9375,22.5625,34.93359375
1256,1.015380859375,-0.372314453125,0.321044921875,0.375,22.9375,22.5625,34.93359375
1258,1.02587890625,-0.356689453125,0.34716796875,0.8125,24.75,17.75,34.9140625
1261,1.02587890625,-0.356689453125,0.34716796875,0.8125,24.75,17.75,34.9140625
1263,1.04052734375,-0.331787109375,0.370361328125,4.125,25.0625,11.0,34.9140625
1265,1.04052734375,-0.331787109375,0.370361328125,4.125,25.0625,11.0,34.9140625
1267,1.063232421875,-0.307861328125,0.375,9.6875,24.5,2.5,34.9140625
1269,1.063232421875,-0.307861328125,0.375,9.6875,24.5,2.5,34.9140625
1271,1.101806640625,-0.27880859375,0.355224609375,17.25,23.125,-7.375,34.9140625
1272,1.101806640625,-0.27880859375,0.355224609375,17.25,23.125,-7.375,34.9140625
1274,1.101806640625,-0.27880859375,0.355224609375,17.25,23.125,-7.375,34.9140625
1277,1.15234375,-0.234130859375,0.32763671875,24.9375,21.6875,-16.75,34.9140625
1279,1.15234375,-0.234130859375,0.32763671875,24.9375,21.6875,-16.75,34.9140625
1280,1.19287109375,-0.185791015625,0.316650390625,31.8125,21.25,-24.75,34.9140625
1282,1.19287109375,-0.185791015625,0.316650390625,31.8125,21.25,-24.75,34.9140625
1285,1.20947265625,-0.13720703125,0.33349609375,37.625,22.375,-31.1875,34.9140625
1287,1.20947265625,-0.13720703125,0.33349609375,37.625,22.375,-31.1875,34.9140625
1289,1.21044921875,-0.093017578125,0.362548828125,42.5,24.9375,-35.75,34.9140625
1291,1.21044921875,-0.093017578125,0.362548828125,42.5,24.9375,-35.75,34.9140625
1293,1.21240234375,-0.052734375,0.38525390625,46.25,27.6875,-38.3125,34.9140625
1295,1.21240234375,-0.052734375,0.38525390625,46.25,27.6875,-38.3125,34.9140625
1297,1.21240234375,-0.052734375,0.38525390625,46.25,27.6875,-39.0625,34.9140625
1299,1.220458984375,-0.01025390625,0.398193359375,49.0,29.0625,-39.0625,34.9140625
1301,1.220458984375,-0.01025390625,0.398193359375,50.5625,28.5,-38.0625,34.9140625
1303,1.23388671875,0.037353515625,0.408935546875,50.5625,28.5,-38.0625,34.9140625
1305,1.23388671875,0.037353515625,0.408935546875,50.5625,28.5,-38.0625,34.9140625
1308,1.2431640625,0.073974609375,0.41796875,50.6875,26.0,-36.0625,34.9140625
1310,1.2431640625,0.073974609375,0.41796875,50.6875,26.0,-36.0625,34.9140625
1312,1.24169921875,0.09228515625,0.41943359375,49.4375,21.0625,-33.125,34.9140625
1314,1.24169921875,0.09228515625,0.41943359375,49.4375,21.0625,-33.125,34.9140625
1316,1.22998046875,0.09423828125,0.4072265625,47.375,14.5625,-29.5,34.9140625
1318,1.22998046875,0.09423828125,0.4072265625,47.375,14.5625,-29.5,34.9140625
1319,1.20703125,0.09228515625,0.400390625,43.75,8.5,-25.125,34.9140625
1322,1.20703125,0.09228515625,0.400390625,43.75,8.5,-25.125,34.9140625
1323,1.17919921875,0.094970703125,0.40625,38.25,4.9375,-20.0,34.9140625
1325,1.17919921875,0.094970703125,0.40625,38.25,4.9375,-20.0,34.9140625
1327,1.17919921875,0.094970703125,0.40625,38.25,4.9375,-20.0,34.9140625
1329,1.157958984375,0.0625,0.429443359375,29.5625,3.625,-16.0625,34.9140625
1332,1.157958984375,0.0625,0.429443359375,29.5625,3.625,-16.0625,34.9140625
1334,1.15087890625,-0.003662109375,0.4541015625,16.6875,2.875,-14.6875,34.9140625
1336,1.15087890625,-0.003662109375,0.4541015625,16.6875,2.875,-14.6875,34.9140625
1338,1.1591796875,-0.058349609375,0.449951171875,1.125,0.125,-14.75,34.9140625
1339,1.1591796875,-0.058349609375,0.449951171875,1.125,0.125,-14.75,34.9140625
1341,1.1669921875,-0.084228515625,0.433837890625,-14.0,-5.4375,-15.4375,34.9140625
1343,1.1669921875,-0.084228515625,0.433837890625,-14.0,-5.4375,-15.4375,34.9140625
1346,1.161865234375,-0.08203125,0.435546875,-27.3125,-10.9375,-16.25,34.9140625
1347,1.161865234375,-0.08203125,0.435546875,-27.3125,-10.9375,-16.25,34.9140625
1349,1.161865234375,-0.08203125,0.435546875,-27.3125,-10.9375,-16.25,34.9140625
1351,1.146728515625,-0.064453125,0.453369140625,-38.0,-14.625,-18.75,34.9140625
1354,1.146728515625,-0.064453125,0.453369140625,-38.0,-14.625,-18.75,34.9140625
1356,1.13623046875,-0.046630859375,0.4609375,-44.625,-18.1875,-22.8125,34.9140625
1358,1.13623046875,-0.046630859375,0.4609375,-44.625,-18.1875,-22.8125,34.9140625
1360,1.13720703125,-0.035400390625,0.4384765625,-46.125,-22.875,-27.9375,34.9140625
1362,1.13720703125,-0.035400390625,0.4384765625,-46.125,-22.875,-27.9375,34.9140625
1364,1.1435546875,-0.02587890625,0.40185546875,-43.125,-28.8125,-33.625,34.9140625
1365,1.1435546875,-0.02587890625,0.40185546875,-43.125,-28.8125,-33.625,34.9140625
1368,1.14306640625,-0.020263671875,0.370849609375,-36.9375,-34.5,-38.875,34.9140625
1370,1.14306640625,-0.020263671875,0.370849609375,-36.9375,-34.5,-38.875,34.9140625
1371,1.14306640625,-0.020263671875,0.370849609375,-36.9375,-34.5,-38.875,34.9140625
1373,1.135009765625,-0.01708984375,0.34765625,-29.625,-37.9375,-44.125,34.9140625
1376,1.135009765625,-0.01708984375,0.34765625,-29.625,-37.9375,-44.125,34.9140625
1378,1.130859375,-0.012939453125,0.3310546875,-22.4375,-38.4375,-49.8125,34.9140625
1380,1.130859375,-0.012939453125,0.3310546875,-22.4375,-38.4375,-49.8125,34.9140625
1382,1.132568359375,-0.00732421875,0.30859375,-16.1875,-36.5,-56.3125,34.9140625
1384,1.132568359375,-0.00732421875,0.30859375,-16.1875,-36.5,-56.3125,34.9140625
1386,1.146240234375,-0.00048828125,0.280029296875,-11.0,-33.5,-63.0,34.9140625
1388,1.146240234375,-0.00048828125,0.280029296875,-11.0,-33.5,-63.0,34.9140625
1390,1.162353515625,0.0048828125,0.255615234375,-5.75,-30.0,-69.5625,34.9140625
1392,1.162353515625,0.0048828125,0.255615234375,-5.75,-30.0,-69.5625,34.9140625
1394,1.162353515625,0.0048828125,0.255615234375,-5.75,-30.0,-69.5625,34.9140625
1396,1.1640625,0.01904296875,0.248291015625,-0.8125,-25.3125,-74.9375,34.9140625
1398,1.1640625,0.01904296875,0.248291015625,-0.8125,-25.3125,-74.9375,34.9140625
1400,1.15966796875,0.046630859375,0.254638671875,2.5625,-19.4375,-79.5625,34.93359375
1402,1.15966796875,0.046630859375,0.254638671875,2.5625,-19.4375,-79.5625,34.93359375
1404,1.1513671875,0.06982421875,0.265869140625,4.6875,-12.8125,-83.8125,34.93359375
1406,1.1513671875,0.06982421875,0.265869140625,4.6875,-12.8125,-83.8125,34.93359375
1408,1.1494140625,0.077392578125,0.263916015625,6.8125,-7.0625,-87.875,34.93359375
1410,1.1494140625,0.077392578125,0.263916015625,6.8125,-7.0625,-87.875,34.93359375
1412,1.15185546875,0.06982421875,0.24462890625,9.9375,-3.0625,-90.875,34.93359375
1414,1.15185546875,0.06982421875,0.24462890625,9.9375,-3.0625,-90.875,34.93359375
1416,1.15185546875,0.06982421875,0.24462890625,9.9375,-3.0625,-90.875,34.93359375
1418,1.154052734375,0.061279296875,0.232177734375,12.8125,-1.0,-92.1875,34.93359375
1420,1.154052734375,0.061279296875,0.232177734375,12.8125,-1.0,-92.1875,34.93359375
1422,1.146484375,0.064208984375,0.21044921875,14.5,-0.0625,-92.6875,34.93359375
1425,1.146484375,0.064208984375,0.21044921875,14.5,-0.0625,-92.6875,34.93359375
1426,1.131103515625,0.060546875,0.198486328125,14.8125,0.6875,-93.5625,34.93359375
1428,1.131103515625,0.060546875,0.198486328125,14.8125,0.6875,-93.5625,34.93359375
1430,1.115478515625,0.045166015625,0.198974609375,14.625,0.0625,-94.4375,34.93359375
1432,1.115478515625,0.045166015625,0.198974609375,14.625,0.0625,-94.4375,34.93359375
1434,1.105712890625,0.0205078125,0.186767578125,14.4375,-2.0,-95.25,34.93359375
1436,1.105712890625,0.0205078125,0.186767578125,14.4375,-2.0,-95.25,34.93359375
1438,1.105712890625,0.0205078125,0.186767578125,14.4375,-2.0,-95.25,34.93359375
1440,1.09619140625,-0.01416015625,0.162841796875,14.6875,-4.5,-95.0625,34.93359375
1443,1.09619140625,-0.01416015625,0.162841796875,14.6875,-4.5,-95.0625,34.93359375
1445,1.0849609375,-0.05517578125,0.1396484375,14.875,-7.375,-93.3125,34.93359375
1447,1.0849609375,-0.05517578125,0.1396484375,14.875,-7.375,-93.3125,34.93359375
1449,1.073974609375,-0.103271484375,0.111572265625,13.75,-10.8125,-90.4375,34.93359375
1450,1.073974609375,-0.103271484375,0.111572265625,13.75,-10.8125,-90.4375,34.93359375
1452,1.063232421875,-0.15234375,0.091552734375,11.1875,-14.875,-87.0625,34.93359375
1454,1.063232421875,-0.15234375,0.091552734375,11.1875,-14.875,-87.0625,34.93359375
1457,1.050048828125,-0.18994140625,0.082763671875,6.375,-19.75,-84.1875,34.93359375
1459,1.050048828125,-0.18994140625,0.082763671875,6.375,-19.75,-84.1875,34.93359375
1461,1.050048828125,-0.18994140625,0.082763671875,-0.6875,-24.75,-82.1875,34.93359375
1462,1.031982421875,-0.217041015625,0.073974609375,-0.6875,-24.75,-82.1875,34.93359375
1465,1.031982421875,-0.217041015625,0.073974609375,-0.6875,-28.4375,-80.625,34.93359375
1467,1.0185546875,-0.229248046875,0.065185546875,-7.9375,-28.4375,-80.625,34.93359375
1469,1.0185546875,-0.229248046875,0.065185546875,-7.9375,-28.4375,-80.625,34.93359375
1471,1.012451171875,-0.224365234375,0.0634765625,-14.0625,-30.25,-79.6875,34.93359375
1473,1.012451171875,-0.224365234375,0.0634765625,-14.0625,-30.25,-79.6875,34.93359375
1475,1.013427734375,-0.219970703125,0.069580078125,-18.125,-30.0,-79.125,34.93359375
1477,1.013427734375,-0.219970703125,0.069580078125,-18.125,-30.0,-79.125,34.93359375
1479,1.009521484375,-0.220947265625,0.0673828125,-21.125,-28.125,-78.875,34.93359375
1481,1.009521484375,-0.220947265625,0.0673828125,-21.125,-28.125,-78.875,34.93359375
1483,1.009521484375,-0.220947265625,0.0673828125,-21.125,-28.125,-78.6875,34.93359375
1485,1.005126953125,-0.21533203125,0.06787109375,-24.0,-25.5625,-78.6875,34.93359375
1487,1.005126953125,-0.21533203125,0.06787109375,-24.0,-25.5625,-78.6875,34.93359375
1489,1.010009765625,-0.205810546875,0.079833984375,-26.9375,-22.3125,-78.375,34.93359375
1491,1.010009765625,-0.205810546875,0.079833984375,-26.9375,-22.3125,-78.375,34.93359375
1493,1.02392578125,-0.19873046875,0.0908203125,-29.0625,-18.4375,-78.5625,34.93359375
1495,1.02392578125,-0.19873046875,0.0908203125,-29.0625,-18.4375,-78.5625,34.93359375
1497,1.035888671875,-0.188232421875,0.09375,-31.0,-14.625,-79.0,34.93359375
1499,1.035888671875,-0.188232421875,0.09375,-31.0,-14.625,-79.0,34.93359375
1501,1.03857421875,-0.168212890625,0.09716796875,-33.25,-11.625,-79.625,34.93359375
1503,1.03857421875,-0.168212890625,0.09716796875,-33.25,-11.625,-79.625,34.93359375
1505,1.0380859375,-0.137939453125,0.115234375,-35.8125,-8.8125,-80.125,34.93359375
1507,1.0380859375,-0.137939453125,0.115234375,-35.8125,-8.8125,-80.125,34.93359375
1510,1.031005859375,-0.100830078125,0.138671875,-38.5,-6.0,-80.3125,34.93359375
1512,1.031005859375,-0.100830078125,0.138671875,-38.5,-6.0,-80.3125,34.93359375
1514,1.031005859375,-0.100830078125,0.138671875,-41.0,-2.9375,-80.25,34.93359375
1516,1.024169921875,-0.0517578125,0.160888671875,-41.0,-2.9375,-80.25,34.93359375
1517,1.024169921875,-0.0517578125,0.160888671875,-41.0,-2.9375,-80.25,34.93359375
1519,1.014892578125,-0.000732421875,0.186279296875,-43.625,-0.0625,-80.625,34.93359375
1521,1.014892578125,-0.000732421875,0.186279296875,-43.625,-0.0625,-80.625,34.93359375
1523,1.009033203125,0.05078125,0.20361328125,-45.375,2.3125,-81.125,34.93359375
1525,1.009033203125,0.05078125,0.20361328125,-45.375,2.3125,-81.125,34.93359375
1527,1.007568359375,0.115234375,0.22216796875,-45.75,3.625,-81.375,34.93359375
1529,1.007568359375,0.115234375,0.22216796875,-45.75,3.625,-81.375,34.93359375
1532,1.010986328125,0.182861328125,0.243896484375,-45.375,3.1875,-81.0625,34.93359375
1534,1.010986328125,0.182861328125,0.243896484375,-45.375,3.1875,-81.0625,34.93359375
1536,1.010986328125,0.182861328125,0.306396484375,-44.125,0.4375,-80.625,34.93359375
1538,1.018798828125,0.242919921875,0.259033203125,-44.125,0.4375,-80.625,34.93359375
1540,1.018798828125,0.242919921875,0.259033203125,-44.125,0.4375,-80.625,34.93359375
1542,1.02294921875,0.296630859375,0.263916015625,-41.4375,-4.3125,-79.375,34.9453125
1544,1.02294921875,0.296630859375,0.263916015625,-41.4375,-4.3125,-79.375,34.9453125
1545,1.0224609375,0.343994140625,0.25830078125,-38.25,-10.875,-76.8125,34.9453125
1548,1.0224609375,0.343994140625,0.25830078125,-38.25,-10.875,-76.8125,34.9453125
1550,1.015869140625,0.380615234375,0.24169921875,-35.375,-18.125,-73.25,34.9453125
1552,1.015869140625,0.380615234375,0.24169921875,-35.375,-18.125,-73.25,34.9453125
1554,1.010498046875,0.415283203125,0.220947265625,-32.8125,-25.1875,-69.0,34.9453125
1556,1.010498046875,0.415283203125,0.220947265625,-32.8125,-25.1875,-69.0,34.9453125
1558,1.0087890625,0.447021484375,0.191162109375,-30.3125,-32.3125,-64.1875,34.9453125
1560,1.0087890625,0.447021484375,0.191162109375,-30.3125,-32.3125,-64.1875,34.9453125
1562,1.0087890625,0.447021484375,0.191162109375,-30.3125,-32.3125,-64.1875,34.9453125
1564,1.01123046875,0.47216796875,0.153564453125,-27.9375,-39.1875,-59.25,34.9453125
1566,1.01123046875,0.47216796875,0.153564453125,-27.9375,-39.1875,-59.25,34.9453125
1568,1.010986328125,0.48681640625,0.10986328125,-25.125,-46.1875,-53.8125,34.9453125
1570,1.010986328125,0.48681640625,0.10986328125,-25.125,-46.1875,-53.8125,34.9453125
1572,1.008544921875,0.491455078125,0.06103515625,-22.5,-53.25,-48.0625,34.9453125
1574,1.008544921875,0.491455078125,0.06103515625,-22.5,-53.25,-48.0625,34.9453125
1576,1.005859375,0.48193359375,0.01708984375,-20.375,-59.6875,-42.1875,34.9453125
1578,1.005859375,0.48193359375,0.01708984375,-20.375,-59.6875,-42.1875,34.9453125
1580,1.004150390625,0.468017578125,-0.024658203125,-18.75,-63.375,-35.8125,34.9453125
1582,1.004150390625,0.468017578125,-0.024658203125,-18.75,-63.375,-35.8125,34.9453125
1584,1.004150390625,0.468017578125,-0.024658203125,-18.75,-63.375,-35.8125,34.9453125
1586,1.011962890625,0.46533203125,-0.052978515625,-17.4375,-63.25,-29.75,34.9453125
1588,1.011962890625,0.46533203125,-0.052978515625,-17.4375,-63.25,-29.75,34.9453125
1590,1.02587890625,0.464599609375,-0.068359375,-16.875,-60.8125,-24.5,34.9453125
1592,1.02587890625,0.464599609375,-0.068359375,-16.875,-60.8125,-24.5,34.9453125
1594,1.042724609375,0.4580078125,-0.08251953125,-16.25,-57.5,-19.75,34.9453125
1596,1.042724609375,0.4580078125,-0.08251953125,-16.25,-57.5,-19.75,34.9453125
1599,1.06201171875,0.44140625,-0.099853515625,-15.1875,-54.4375,-15.3125,34.9453125
1601,1.06201171875,0.44140625,-0.099853515625,-15.1875,-54.4375,-15.3125,34.9453125
1603,1.0830078125,0.41650390625,-0.111328125,-13.9375,-50.875,-10.875,34.9453125
1605,1.0830078125,0.41650390625,-0.111328125,-13.9375,-50.875,-10.875,34.9453125
1607,1.0830078125,0.41650390625,-0.111328125,-13.9375,-50.875,-10.875,34.9453125
1608,1.106201171875,0.390380859375,-0.123291015625,-13.0625,-46.6875,-5.875,34.9453125
1610,1.106201171875,0.390380859375,-0.123291015625,-13.0625,-46.6875,-5.875,34.9453125
1612,1.134033203125,0.3671875,-0.136962890625,-12.0625,-42.125,-1.1875,34.9453125
1614,1.134033203125,0.3671875,-0.136962890625,-12.0625,-42.125,-1.1875,34.9453125
1616,1.1591796875,0.348876953125,-0.14794921875,-11.0,-37.375,2.0,34.9453125
1618,1.1591796875,0.348876953125,-0.14794921875,-11.0,-37.375,2.0,34.9453125
1621,1.178466796875,0.3369140625,-0.1494140625,-9.4375,-32.4375,3.5,34.9453125
1623,1.178466796875,0.3369140625,-0.1494140625,-9.4375,-32.4375,3.5,34.9453125
1625,1.178466796875,0.33740234375,-0.150146484375,-6.3125,-27.4375,3.8125,34.9453125
1627,1.20068359375,0.33740234375,-0.150146484375,-6.3125,-27.4375,3.8125,34.9453125
1629,1.20068359375,0.33740234375,-0.150146484375,-6.3125,-27.4375,3.8125,34.9453125
1631,1.23095703125,0.34423828125,-0.152099609375,-2.0625,-23.5,3.6875,34.9453125
1632,1.23095703125,0.34423828125,-0.152099609375,-2.0625,-23.5,3.6875,34.9453125
1634,1.25830078125,0.346435546875,-0.146240234375,3.5,-20.5625,3.875,34.9453125
1636,1.25830078125,0.346435546875,-0.146240234375,3.5,-20.5625,3.875,34.9453125
1638,1.290283203125,0.34375,-0.14111328125,9.75,-18.625,5.375,34.9453125
1640,1.290283203125,0.34375,-0.14111328125,9.75,-18.625,5.375,34.9453125
1643,1.324462890625,0.33837890625,-0.1357421875,15.9375,-16.625,7.25,34.9453125
1645,1.324462890625,0.33837890625,-0.1357421875,15.9375,-16.625,7.25,34.9453125
1647,1.324462890625,0.33837890625,-0.1357421875,21.6875,-14.9375,9.5,34.9453125
1649,1.361083984375,0.332763671875,-0.1337890625,21.6875,-14.9375,9.5,34.9453125
1651,1.361083984375,0.332763671875,-0.1337890625,21.6875,-14.9375,9.5,34.9453125
1653,1.412841796875,0.328369140625,-0.143798828125,25.125,-13.75,11.75,34.9453125
1654,1.412841796875,0.328369140625,-0.143798828125,25.125,-13.75,11.75,34.9453125
1656,1.462890625,0.31884765625,-0.1494140625,27.0625,-12.875,13.625,34.9453125
1658,1.462890625,0.31884765625,-0.1494140625,27.0625,-12.875,13.625,34.9453125
1660,1.5029296875,0.316162109375,-0.1513671875,28.0625,-13.4375,16.5625,34.9453125
1662,1.5029296875,0.316162109375,-0.1513671875,28.0625,-13.4375,16.5625,34.9453125
1665,1.5341796875,0.31103515625,-0.150390625,27.6875,-14.875,21.1875,34.9453125
1667,1.5341796875,0.31103515625,-0.150390625,27.6875,-14.875,21.1875,34.9453125
1668,1.5341796875,0.31103515625,-0.150390625,27.6875,-14.875,21.1875,34.9453125
1671,1.557373046875,0.30419921875,-0.1484375,26.75,-16.3125,27.0625,34.9453125
1672,1.557373046875,0.30419921875,-0.1484375,26.75,-16.3125,27.0625,34.9453125
1674,1.576904296875,0.30224609375,-0.144287109375,25.5625,-18.3125,33.5,34.9453125
1676,1.576904296875,0.30224609375,-0.144287109375,25.5625,-18.3125,33.5,34.9453125
1678,1.599609375,0.29931640625,-0.133056640625,23.9375,-19.9375,39.9375,34.9453125
1680,1.599609375,0.29931640625,-0.133056640625,23.9375,-19.9375,39.9375,34.9453125
1682,1.621337890625,0.295654296875,-0.12109375,22.1875,-21.5625,46.1875,34.96875
1684,1.621337890625,0.295654296875,-0.12109375,22.1875,-21.5625,46.1875,34.96875
1687,1.6474609375,0.294189453125,-0.11279296875,20.9375,-23.3125,52.6875,34.96875
1689,1.6474609375,0.294189453125,-0.11279296875,20.9375,-23.3125,52.6875,34.96875
1690,1.6474609375,0.294189453125,-0.11279296875,20.9375,-23.3125,52.6875,34.96875
1693,1.672119140625,0.294189453125,-0.10498046875,20.4375,-25.125,59.5,34.96875
1695,1.672119140625,0.294189453125,-0.10498046875,20.4375,-25.125,59.5,34.96875
1697,1.694580078125,0.291015625,-0.091064453125,20.5625,-27.0,65.875,34.96875
1699,1.694580078125,0.291015625,-0.091064453125,20.5625,-27.0,65.875,34.96875
1701,1.71533203125,0.2890625,-0.079345703125,20.625,-29.0,70.75,34.96875
1703,1.71533203125,0.2890625,-0.079345703125,20.625,-29.0,70.75,34.96875
1705,1.73291015625,0.29345703125,-0.072021484375,20.6875,-31.6875,74.0625,34.96875
1707,1.73291015625,0.29345703125,-0.072021484375,20.6875,-31.6875,74.0625,34.96875
1709,1.75,0.30029296875,-0.073486328125,21.375,-35.5625,75.5,34.96875
1711,1.75,0.30029296875,-0.073486328125,21.375,-35.5625,75.5,34.96875
1713,1.76025390625,0.310302734375,-0.08203125,23.3125,-40.375,76.3125,34.96875
1716,1.76025390625,0.310302734375,-0.08203125,23.3125,-40.375,76.3125,34.96875
1717,1.76025390625,0.310302734375,-0.08203125,23.3125,-40.375,76.5625,34.96875
1719,1.754638671875,0.3212890625,-0.09423828125,26.1875,-46.4375,76.5625,34.96875
1721,1.754638671875,0.3212890625,-0.09423828125,26.1875,-46.4375,76.5625,34.96875
1723,1.732666015625,0.332763671875,-0.109130859375,30.0,-53.375,76.125,34.96875
1725,1.732666015625,0.332763671875,-0.109130859375,30.0,-53.375,76.125,34.96875
1727,1.69677734375,0.34228515625,-0.121337890625,34.5,-61.25,75.5,34.96875
1729,1.69677734375,0.34228515625,-0.121337890625,34.5,-61.25,75.5,34.96875
1731,1.659423828125,0.343994140625,-0.134765625,39.0,-68.3125,75.1875,34.96875
1733,1.659423828125,0.343994140625,-0.134765625,39.0,-68.3125,75.1875,34.96875
1735,1.659423828125,0.343994140625,-0.134765625,42.75,-74.125,76.125,34.96875
1737,1.625732421875,0.342041015625,-0.154541015625,42.75,-74.125,76.125,34.96875
1739,1.625732421875,0.342041015625,-0.154541015625,42.75,-74.125,76.125,34.96875
1741,1.58837890625,0.334716796875,-0.183837890625,45.6875,-78.6875,77.5625,34.96875
1743,1.58837890625,0.334716796875,-0.183837890625,45.6875,-78.6875,77.5625,34.96875
1745,1.567626953125,0.319580078125,-0.215087890625,47.5625,-82.5625,78.8125,34.96875
1747,1.567626953125,0.319580078125,-0.215087890625,47.5625,-82.5625,78.8125,34.96875
1749,1.553466796875,0.287109375,-0.23828125,47.625,-85.4375,80.75,34.96875
1751,1.553466796875,0.287109375,-0.23828125,47.625,-85.4375,80.75,34.96875
1753,1.544189453125,0.245849609375,-0.263671875,45.8125,-86.8125,83.4375,34.96875
1755,1.544189453125,0.245849609375,-0.263671875,45.8125,-86.8125,83.4375,34.96875
1758,1.5322265625,0.208740234375,-0.287353515625,42.875,-86.375,85.9375,34.96875
1760,1.5322265625,0.208740234375,-0.287353515625,42.875,-86.375,85.9375,34.96875
1762,1.5322265625,0.208740234375,-0.287353515625,42.875,-84.8125,87.3125,34.96875
1764,1.52490234375,0.1865234375,-0.286865234375,39.0625,-84.8125,87.3125,34.96875
1766,1.52490234375,0.1865234375,-0.286865234375,39.0625,-84.8125,87.3125,34.96875
1768,1.51953125,0.175537109375,-0.276611328125,35.8125,-82.3125,86.75,34.96875
1769,1.51953125,0.175537109375,-0.276611328125,35.8125,-82.3125,86.75,34.96875
1772,1.515380859375,0.17626953125,-0.26220703125,33.5,-79.5,85.125,34.96875
1774,1.515380859375,0.17626953125,-0.26220703125,33.5,-79.5,85.125,34.96875
1776,1.50537109375,0.1826171875,-0.254150390625,32.3125,-76.4375,82.3125,34.96875
1777,1.50537109375,0.1826171875,-0.254150390625,32.3125,-76.4375,82.3125,34.96875
1780,1.4912109375,0.19140625,-0.246337890625,32.0625,-73.5,78.625,34.96875
1782,1.4912109375,0.19140625,-0.246337890625,32.0625,-73.5,78.625,34.96875
1784,1.46630859375,0.204833984375,-0.2353515625,33.0,-70.3125,74.25,34.96875
1786,1.46630859375,0.204833984375,-0.2353515625,33.0,-70.3125,74.25,34.96875
1788,1.46630859375,0.204833984375,-0.2353515625,33.0,-70.3125,74.25,34.96875
1791,1.424072265625,0.224853515625,-0.215576171875,34.8125,-66.6875,69.75,34.96875
1793,1.424072265625,0.224853515625,-0.215576171875,34.8125,-62.5,64.75,34.96875
1795,1.364990234375,0.251220703125,-0.192138671875,36.875,-62.5,64.75,34.96875
1797,1.364990234375,0.251220703125,-0.192138671875,36.875,-62.5,64.75,34.96875
1799,1.288330078125,0.274658203125,-0.150146484375,38.5,-57.25,60.1875,34.96875
1801,1.288330078125,0.274658203125,-0.150146484375,38.5,-57.25,60.1875,34.96875
1802,1.220947265625,0.287109375,-0.09228515625,40.4375,-50.25,57.0625,34.96875
1805,1.220947265625,0.287109375,-0.09228515625,40.4375,-50.25,57.0625,34.96875
1807,1.164306640625,0.294189453125,-0.046875,42.875,-42.9375,55.5,34.96875
1809,1.164306640625,0.294189453125,-0.046875,42.875,-42.9375,55.5,34.96875
1811,1.121826171875,0.294189453125,-0.015869140625,43.25,-35.6875,56.75,34.96875
1812,1.121826171875,0.294189453125,-0.015869140625,43.25,-35.6875,56.75,34.96875
1814,1.121826171875,0.294189453125,-0.015869140625,43.25,-35.6875,56.75,34.96875
1817,1.095458984375,0.277099609375,0.013427734375,41.5625,-28.9375,60.1875,34.96875
1819,1.095458984375,0.277099609375,0.013427734375,41.5625,-28.9375,60.1875,34.96875
1821,1.066650390625,0.23779296875,0.045166015625,38.0,-23.25,65.0625,34.96875
1822,1.066650390625,0.23779296875,0.045166015625,38.0,-23.25,65.0625,34.96875
1824,1.030517578125,0.172607421875,0.082763671875,31.625,-18.875,70.9375,34.953125
1827,1.030517578125,0.172607421875,0.082763671875,31.625,-18.875,70.9375,34.953125
1829,1.005615234375,0.09033203125,0.113037109375,22.25,-15.4375,77.0625,34.953125
1831,1.005615234375,0.09033203125,0.113037109375,22.25,-15.4375,77.0625,34.953125
1833,0.996337890625,0.01318359375,0.123291015625,10.25,-12.5625,83.625,34.953125
1835,0.996337890625,0.01318359375,0.123291015625,10.25,-12.5625,83.625,34.953125
1837,0.996337890625,0.01318359375,0.123291015625,10.25,-12.5625,83.625,34.953125
1839,0.9951171875,-0.051025390625,0.11181640625,-3.3125,-10.25,89.125,34.953125
1841,0.9951171875,-0.051025390625,0.11181640625,-3.3125,-10.25,89.125,34.953125
1843,1.00341796875,-0.09765625,0.089111328125,-16.875,-8.9375,92.625,34.953125
1845,1.00341796875,-0.09765625,0.089111328125,-16.875,-8.9375,92.625,34.953125
1846,1.016357421875,-0.13525390625,0.06396484375,-28.6875,-8.6875,94.1875,34.953125
1849,1.016357421875,-0.13525390625,0.06396484375,-28.6875,-8.6875,94.1875,34.953125
1851,1.015869140625,-0.17236328125,0.043212890625,-37.75,-9.0,94.5625,34.953125
1856,1.015869140625,-0.17236328125,0.043212890625,-37.75,-9.0,94.5625,34.953125
1858,0.98193359375,-0.207275390625,0.03125,-43.5625,-9.6875,94.0,34.953125
1860,0.929931640625,-0.236572265625,0.02392578125,-46.5625,-10.0,91.75,34.953125
1862,0.929931640625,-0.236572265625,0.02392578125,-46.5625,-10.0,91.75,34.953125
1864,0.88232421875,-0.2578125,0.013427734375,-48.625,-9.5625,87.0625,34.953125
1866,0.88232421875,-0.2578125,0.013427734375,-48.625,-9.5625,87.0625,34.953125
1868,0.88232421875,-0.2578125,0.013427734375,-48.625,-9.5625,87.0625,34.953125
1870,0.84033203125,-0.269287109375,-0.001953125,-50.4375,-8.0625,80.4375,34.953125
1872,0.84033203125,-0.269287109375,-0.001953125,-50.4375,-8.0625,80.4375,34.953125
1874,0.80517578125,-0.278076171875,-0.021240234375,-50.0625,-5.9375,72.3125,34.953125
1876,0.80517578125,-0.278076171875,-0.021240234375,-50.0625,-5.9375,72.3125,34.953125
1878,0.759521484375,-0.283935546875,-0.04736328125,-48.5,-3.625,63.5625,34.953125
1880,0.759521484375,-0.283935546875,-0.04736328125,-48.5,-3.625,63.5625,34.953125
1882,0.704345703125,-0.2880859375,-0.0673828125,-48.0625,0.5,56.1875,34.953125
1884,0.704345703125,-0.2880859375,-0.0673828125,-48.0625,0.5,56.1875,34.953125
1886,0.637451171875,-0.28955078125,-0.073486328125,-49.0,6.3125,50.1875,34.953125
1888,0.637451171875,-0.28955078125,-0.073486328125,-49.0,6.3125,50.1875,34.953125
1890,0.637451171875,-0.28955078125,-0.073486328125,-49.0,6.3125,50.1875,34.953125
1892,0.574462890625,-0.28076171875,-0.082763671875,-50.4375,13.5625,44.4375,34.953125
1894,0.574462890625,-0.28076171875,-0.082763671875,-50.4375,13.5625,44.4375,34.953125
1896,0.528564453125,-0.26416015625,-0.100830078125,-53.4375,21.8125,38.75,34.953125
1898,0.528564453125,-0.26416015625,-0.100830078125,-53.4375,21.8125,38.75,34.953125
1900,0.510498046875,-0.25,-0.139404296875,-58.625,30.25,34.4375,34.953125
1902,0.510498046875,-0.25,-0.139404296875,-58.625,30.25,34.4375,34.953125
1904,0.498291015625,-0.237060546875,-0.19189453125,-64.3125,38.5625,32.0,34.953125
1906,0.498291015625,-0.237060546875,-0.19189453125,-64.3125,38.5625,32.0,34.953125
1909,0.46337890625,-0.228271484375,-0.230224609375,-69.625,46.1875,31.375,34.953125
1911,0.46337890625,-0.228271484375,-0.230224609375,-69.625,46.1875,31.375,34.953125
1913,0.403564453125,-0.225341796875,-0.244873046875,-74.3125,53.375,31.5,34.953125
1915,0.403564453125,-0.225341796875,-0.244873046875,-74.3125,53.375,31.5,34.953125
1916,0.403564453125,-0.225341796875,-0.244873046875,-74.3125,53.375,31.5,34.953125
1919,0.34619140625,-0.225830078125,-0.2607421875,-77.3125,61.0625,31.25,34.953125
1921,0.34619140625,-0.225830078125,-0.2607421875,-77.3125,77.0625,30.3125,34.953125
1923,0.294677734375,-0.21630859375,-0.26611328125,-78.3125,68.75,30.3125,34.953125
1925,0.294677734375,-0.21630859375,-0.26611328125,-78.3125,68.75,30.3125,34.953125
1927,0.256591796875,-0.2099609375,-0.239501953125,-78.5625,76.625,29.4375,34.953125
1929,0.256591796875,-0.2099609375,-0.239501953125,-78.5625,76.625,29.4375,34.953125
1931,0.226318359375,-0.211669921875,-0.18994140625,-76.5,83.9375,28.4375,34.953125
1933,0.226318359375,-0.211669921875,-0.18994140625,-76.5,83.9375,28.4375,34.953125
1935,0.19775390625,-0.225341796875,-0.14599609375,-73.5,89.875,26.1875,34.953125
1937,0.19775390625,-0.225341796875,-0.14599609375,-73.5,89.875,26.1875,34.953125
1939,0.19775390625,-0.225341796875,-0.14599609375,-73.5,89.875,26.1875,34.953125
1941,0.15185546875,-0.248779296875,-0.112060546875,-70.25,93.5625,22.75,34.953125
1943,0.15185546875,-0.248779296875,-0.112060546875,-70.25,93.5625,22.75,34.953125
1945,0.085693359375,-0.2685546875,-0.068359375,-67.1875,95.375,18.5,34.953125
1947,0.085693359375,-0.2685546875,-0.068359375,-67.1875,95.375,18.5,34.953125
1949,0.006591796875,-0.267578125,-0.007568359375,-64.625,97.375,13.5625,34.953125
1951,0.006591796875,-0.267578125,-0.007568359375,-64.625,97.375,13.5625,34.953125
1953,-0.078125,-0.2255859375,0.08154296875,-61.9375,101.375,6.875,34.953125
1955,-0.078125,-0.2255859375,0.08154296875,-61.9375,101.375,6.875,34.953125
1957,-0.078125,-0.2255859375,0.1962890625,-59.0,108.375,-0.75,34.953125
1959,-0.170166015625,-0.171142578125,0.1962890625,-59.0,108.375,-0.75,34.953125
1960,-0.170166015625,-0.171142578125,0.1962890625,-59.0,108.375,-0.75,34.953125
1962,-0.251953125,-0.13623046875,0.30615234375,-55.5,117.625,-7.375,34.953125
1965,-0.251953125,-0.13623046875,0.30615234375,-55.5,117.625,-7.375,34.953125
1967,-0.3310546875,-0.131591796875,0.402099609375,-49.6875,127.1875,-12.375,34.9375
1969,-0.3310546875,-0.131591796875,0.402099609375,-49.6875,127.1875,-12.375,34.9375
1971,-0.42431640625,-0.145751953125,0.51123046875,-41.125,136.9375,-14.75,34.9375
1973,-0.42431640625,-0.145751953125,0.51123046875,-41.125,136.9375,-14.75,34.9375
1975,-0.5341796875,-0.164306640625,0.6572265625,-31.4375,149.8125,-14.875,34.9375
1977,-0.5341796875,-0.164306640625,0.6572265625,-31.4375,149.8125,-14.875,34.9375
1978,-0.5341796875,-0.164306640625,0.6572265625,-31.4375,149.8125,-14.875,34.9375
1980,-0.63671875,-0.18603515625,0.83740234375,-21.375,167.125,-13.5625,34.9375
1982,-0.63671875,-0.18603515625,0.83740234375,-21.375,167.125,-13.5625,34.9375
1984,-0.713623046875,-0.21142578125,1.03125,-11.5625,189.125,-12.3125,34.9375
1987,-0.713623046875,-0.21142578125,1.03125,-11.5625,189.125,-12.3125,34.9375
1989,-0.754638671875,-0.252685546875,1.225341796875,-4.3125,215.1875,-11.9375,34.9375
1991,-0.754638671875,-0.252685546875,1.225341796875,-4.3125,215.1875,-11.9375,34.9375
1993,-0.766845703125,-0.304443359375,1.421630859375,0.125,241.9375,-12.5625,34.9375
1995,-0.766845703125,-0.304443359375,1.421630859375,0.125,241.9375,-12.5625,34.9375
1997,-0.755615234375,-0.35107421875,1.599365234375,1.3125,265.5625,-14.5,34.9375
1999,-0.755615234375,-0.35107421875,1.599365234375,1.3125,265.5625,-14.5,34.9375
2001,-0.755615234375,-0.35107421875,1.599365234375,1.3125,265.5625,-14.5,34.9375
2003,-0.729736328125,-0.373291015625,1.76025390625,-0.8125,285.375,-18.5,34.9375
2004,-0.729736328125,-0.373291015625,1.76025390625,-0.8125,285.375,-18.5,34.9375
2006,-0.685302734375,-0.3779296875,1.9130859375,-5.0625,300.3125,-26.3125,34.9375
2009,-0.685302734375,-0.3779296875,1.9130859375,-5.0625,300.3125,-26.3125,34.9375
2011,-0.631591796875,-0.36669921875,2.05224609375,-11.25,310.6875,-39.5,34.9375
2013,-0.631591796875,-0.36669921875,2.05224609375,-11.25,310.6875,-39.5,34.9375
2015,-0.576416015625,-0.3134765625,2.17626953125,-20.0,314.875,-60.625,34.9375
2017,-0.576416015625,-0.3134765625,2.17626953125,-20.0,314.875,-60.625,34.9375
2019,-0.576416015625,-0.3134765625,2.17626953125,-20.0,312.9375,-88.0,34.9375
2021,-0.494873046875,-0.23876953125,2.29296875,-30.9375,312.9375,-88.0,34.9375
2023,-0.494873046875,-0.23876953125,2.29296875,-30.9375,312.9375,-88.0,34.9375
2024,-0.3984375,-0.1337890625,2.399658203125,-43.0,305.5,-117.375,34.9375
2026,-0.3984375,-0.1337890625,2.399658203125,-43.0,305.5,-117.375,34.9375
2028,-0.27978515625,0.01611328125,2.462158203125,-53.25,292.9375,-144.5625,34.9375
2031,-0.27978515625,0.01611328125,2.462158203125,-53.25,292.9375,-144.5625,34.9375
2033,-0.13671875,0.208251953125,2.468017578125,-58.375,276.625,-166.4375,34.9375
2035,-0.13671875,0.208251953125,2.468017578125,-58.375,276.625,-166.4375,34.9375
2037,0.013671875,0.405517578125,2.467041015625,-58.1875,257.3125,-181.125,34.9375
2039,0.013671875,0.405517578125,2.467041015625,-58.1875,257.3125,-181.125,34.9375
2040,0.013671875,0.405517578125,2.467041015625,-58.1875,257.3125,-181.125,34.9375
2043,0.170166015625,0.5830078125,2.46533203125,-53.9375,235.5625,-187.9375,34.9375
2045,0.170166015625,0.5830078125,2.46533203125,-53.9375,235.5625,-187.9375,34.9375
2046,0.3271484375,0.72119140625,2.44140625,-47.375,211.25,-186.5625,34.9375
2048,0.3271484375,0.72119140625,2.44140625,-47.375,211.25,-186.5625,34.9375
2050,0.45947265625,0.80908203125,2.328857421875,-42.25,185.125,-176.375,34.9375
2052,0.45947265625,0.80908203125,2.328857421875,-42.25,185.125,-176.375,34.9375
2054,0.570556640625,0.849365234375,2.19384765625,-39.9375,159.875,-157.25,34.9375
2057,0.570556640625,0.849365234375,2.19384765625,-39.9375,159.875,-157.25,34.9375
2059,0.681640625,0.868896484375,2.0693359375,-40.875,137.6875,-131.4375,34.9375
2061,0.681640625,0.868896484375,2.0693359375,-40.875,137.6875,-131.4375,34.9375
2062,0.681640625,0.868896484375,2.0693359375,-40.875,137.6875,-131.4375,34.9375
2065,0.7861328125,0.88232421875,1.952392578125,-44.6875,117.875,-101.8125,34.9375
2067,0.7861328125,0.88232421875,1.952392578125,-44.6875,117.875,-101.8125,34.9375
2068,0.88427734375,0.881103515625,1.864990234375,-50.25,98.1875,-71.4375,34.9375
2070,0.88427734375,0.881103515625,1.864990234375,-50.25,98.1875,-71.4375,34.9375
2072,0.95947265625,0.858642578125,1.800537109375,-54.5625,77.0,-42.25,34.9375
2074,0.95947265625,0.858642578125,1.800537109375,-54.5625,77.0,-42.25,34.9375
2076,0.95947265625,0.822021484375,1.728271484375,-57.0,54.8125,-14.75,34.9375
2078,0.99658203125,0.822021484375,1.728271484375,-57.0,54.8125,-14.75,34.9375
2081,0.99658203125,0.822021484375,1.665771484375,-55.875,32.3125,9.625,34.9375
2083,1.002685546875,0.772705078125,1.66845703125,-55.875,32.3125,9.625,34.9375
2084,1.002685546875,0.772705078125,1.66845703125,-55.875,32.3125,9.625,34.9375
2087,0.990478515625,0.724853515625,1.622802734375,-50.375,10.5625,27.4375,34.9375
2088,0.990478515625,0.724853515625,1.622802734375,-50.375,10.5625,27.4375,34.9375
2090,0.978759765625,0.6728515625,1.568603515625,-41.5,-10.0625,38.1875,34.9375
2092,0.978759765625,0.6728515625,1.568603515625,-41.5,-10.0625,38.1875,34.9375
2094,0.96728515625,0.59814453125,1.5009765625,-31.0,-28.3125,44.125,34.9375
2096,0.96728515625,0.59814453125,1.5009765625,-31.0,-28.3125,44.125,34.9375
2098,0.96728515625,0.59814453125,1.5009765625,-31.0,-44.0,47.6875,34.9375
2100,0.943359375,0.500732421875,1.420166015625,-19.125,-44.0,47.6875,34.9375
2102,0.943359375,0.500732421875,1.420166015625,-19.125,-44.0,47.6875,34.9375
2105,0.904052734375,0.39990234375,1.336669921875,-6.5625,-57.375,49.375,34.9375
2106,0.904052734375,0.39990234375,1.336669921875,-6.5625,-57.375,49.375,34.9375
2109,0.859130859375,0.311767578125,1.26416015625,4.8125,-68.6875,49.0625,34.953125
2111,0.859130859375,0.311767578125,1.26416015625,4.8125,-68.6875,49.0625,34.953125
2113,0.817626953125,0.23779296875,1.198486328125,14.25,-77.1875,47.3125,34.953125
2115,0.817626953125,0.23779296875,1.198486328125,14.25,-77.1875,47.3125,34.953125
2117,0.77734375,0.17236328125,1.140380859375,22.5625,-83.625,44.6875,34.953125
2119,0.77734375,0.17236328125,1.140380859375,22.5625,-83.625,44.6875,34.953125
2121,0.737548828125,0.1103515625,1.08837890625,30.8125,-88.6875,41.875,34.953125
2123,0.737548828125,0.1103515625,1.08837890625,30.8125,-88.6875,41.875,34.953125
2125,0.737548828125,0.1103515625,1.08837890625,30.8125,-88.6875,41.875,34.953125
2127,0.69482421875,0.058837890625,1.04150390625,38.875,-92.5,39.25,34.953125
2129,0.69482421875,0.058837890625,1.04150390625,38.875,-92.5,39.25,34.953125
2131,0.65869140625,0.01708984375,1.002197265625,46.125,-95.125,36.25,34.953125
2133,0.65869140625,0.01708984375,1.002197265625,46.125,-95.125,36.25,34.953125
2135,0.6328125,-0.015380859375,0.972412109375,52.875,-96.3125,33.125,34.953125
2137,0.6328125,-0.015380859375,0.972412109375,52.875,-96.3125,33.125,34.953125
2139,0.612548828125,-0.04248046875,0.94873046875,59.0625,-96.375,29.625,34.953125
2141,0.612548828125,-0.04248046875,0.94873046875,59.0625,-96.375,29.625,34.953125
2143,0.594970703125,-0.06005859375,0.9296875,64.5625,-95.9375,26.3125,34.953125
2145,0.594970703125,-0.06005859375,0.9296875,64.5625,-95.9375,26.3125,34.953125
2147,0.594970703125,-0.06005859375,0.9296875,64.5625,-95.9375,26.3125,34.953125
2149,0.582763671875,-0.066650390625,0.919189453125,68.4375,-95.0625,24.0,34.953125
2151,0.582763671875,-0.066650390625,0.919189453125,68.4375,-95.0625,24.0,34.953125
2154,0.5703125,-0.06298828125,0.92724609375,70.875,-93.3125,23.25,34.953125
2155,0.5703125,-0.06298828125,0.92724609375,70.875,-93.3125,23.25,34.953125
2157,0.555908203125,-0.05517578125,0.9443359375,71.4375,-90.625,23.75,34.953125
2159,0.555908203125,-0.05517578125,0.9443359375,71.4375,-90.625,23.75,34.953125
2161,0.54150390625,-0.0478515625,0.95361328125,70.5625,-87.875,25.625,34.953125
2163,0.54150390625,-0.0478515625,0.95361328125,70.5625,-87.875,25.625,34.953125
2165,0.535400390625,-0.039794921875,0.95361328125,68.625,-85.5625,28.0,34.953125
2167,0.535400390625,-0.039794921875,0.95361328125,68.625,-85.5625,28.0,34.953125
2169,0.535400390625,-0.039794921875,0.95361328125,68.625,-85.5625,30.875,34.953125
2171,0.532470703125,-0.034423828125,0.95263671875,66.3125,-83.625,30.875,34.953125
2173,0.532470703125,-0.034423828125,0.95263671875,66.3125,-83.625,30.875,34.953125
2176,0.520751953125,-0.031982421875,0.95703125,63.1875,-81.5,33.8125,34.953125
2178,0.520751953125,-0.031982421875,0.95703125,63.1875,-81.5,33.8125,34.953125
2179,0.501953125,-0.028564453125,0.974609375,58.9375,-80.375,37.25,34.953125
2181,0.501953125,-0.028564453125,0.974609375,58.9375,-80.375,37.25,34.953125
2183,0.48681640625,-0.028564453125,1.00146484375,53.75,-80.6875,40.75,34.953125
2185,0.48681640625,-0.028564453125,1.00146484375,53.75,-80.6875,40.75,34.953125
2187,0.48193359375,-0.033935546875,1.025390625,48.25,-82.125,44.1875,34.953125
2189,0.48193359375,-0.033935546875,1.025390625,48.25,-82.125,44.1875,34.953125
2191,0.48193359375,-0.033935546875,1.025390625,48.25,-82.125,47.0,34.953125
2193,0.48388671875,-0.036376953125,1.041259765625,42.625,-84.5625,47.0,34.953125
2195,0.48388671875,-0.036376953125,1.041259765625,42.625,-84.5625,47.0,34.953125
2198,0.486083984375,-0.038330078125,1.043701171875,37.4375,-88.0625,49.3125,34.953125
2200,0.486083984375,-0.038330078125,1.043701171875,37.4375,-88.0625,49.3125,34.953125
2202,0.47998046875,-0.03759765625,1.043212890625,32.9375,-92.5,50.875,34.953125
2204,0.47998046875,-0.03759765625,1.043212890625,32.9375,-92.5,50.875,34.953125
2206,0.467529296875,-0.029296875,1.04833984375,29.0,-96.875,51.625,34.953125
2207,0.467529296875,-0.029296875,1.04833984375,29.0,-96.875,51.625,34.953125
2210,0.458740234375,-0.011962890625,1.054931640625,25.4375,-100.5,51.8125,34.953125
2212,0.458740234375,-0.011962890625,1.054931640625,25.4375,-100.5,51.8125,34.953125
2213,0.458740234375,-0.011962890625,1.054931640625,25.4375,-100.5,51.8125,34.953125
2215,0.45458984375,0.009033203125,1.06005859375,22.5625,-102.75,51.625,34.953125
2217,0.45458984375,0.009033203125,1.06005859375,22.5625,-102.75,51.625,34.953125
2220,0.452392578125,0.02880859375,1.0517578125,20.4375,-104.125,51.4375,34.953125
2222,0.452392578125,0.02880859375,1.0517578125,20.4375,-104.125,51.4375,34.953125
2224,0.433349609375,0.033447265625,1.064697265625,20.4375,-104.8125,51.0,34.953125
2226,0.433349609375,0.033447265625,1.064697265625,20.4375,-104.8125,51.0,34.953125
2228,0.405029296875,0.02587890625,1.086181640625,22.9375,-104.9375,50.75,34.953125
2230,0.405029296875,0.02587890625,1.086181640625,22.9375,-104.9375,50.75,34.953125
2232,0.39990234375,0.00927734375,1.074951171875,25.125,-104.375,50.4375,34.953125
2234,0.39990234375,0.00927734375,1.074951171875,25.125,-104.375,50.4375,34.953125
2236,0.39990234375,-0.016845703125,1.041015625,27.0,-103.375,49.375,34.953125
2238,0.4130859375,-0.016845703125,1.041015625,27.0,-103.375,49.375,34.953125
2240,0.4130859375,-0.016845703125,1.041015625,27.0,-103.375,49.375,34.953125
2242,0.41455078125,-0.04638671875,1.00634765625,28.1875,-102.5625,47.875,34.953125
2244,0.41455078125,-0.04638671875,1.00634765625,28.1875,-102.5625,47.875,34.953125
2246,0.395751953125,-0.077880859375,0.98095703125,28.25,-101.875,46.4375,34.953125
2248,0.395751953125,-0.077880859375,0.98095703125,28.25,-101.875,46.4375,34.953125
2250,0.37841796875,-0.109619140625,0.955078125,26.6875,-100.5,45.25,34.98046875
2252,0.37841796875,-0.109619140625,0.955078125,26.6875,-100.5,45.25,34.98046875
2254,0.37353515625,-0.1357421875,0.910400390625,23.5,-98.5,43.4375,34.98046875
2256,0.37353515625,-0.1357421875,0.910400390625,23.5,-98.5,43.4375,34.98046875
2258,0.37353515625,-0.1357421875,0.84912109375,19.0,-96.25,41.0625,34.98046875
2260,0.385498046875,-0.152099609375,0.84912109375,19.0,-96.25,41.0625,34.98046875
2262,0.385498046875,-0.152099609375,0.84912109375,19.0,-96.25,41.0625,34.98046875
2264,0.395751953125,-0.159912109375,0.781982421875,14.25,-94.1875,38.75,34.98046875
2266,0.395751953125,-0.159912109375,0.781982421875,14.25,-94.1875,38.75,34.98046875
2268,0.39306640625,-0.15673828125,0.725830078125,9.9375,-92.625,36.9375,34.98046875
2270,0.39306640625,-0.15673828125,0.725830078125,9.9375,-92.625,36.9375,34.98046875
2272,0.379638671875,-0.143310546875,0.68896484375,6.1875,-90.75,35.4375,34.98046875
2274,0.379638671875,-0.143310546875,0.68896484375,6.1875,-90.75,35.4375,34.98046875
2276,0.3603515625,-0.12109375,0.671875,3.875,-87.8125,33.8125,34.98046875
2278,0.3603515625,-0.12109375,0.671875,3.875,-87.8125,33.8125,34.98046875
2280,0.349853515625,-0.093017578125,0.66455078125,2.5625,-84.375,31.75,34.98046875
2282,0.349853515625,-0.093017578125,0.66455078125,2.5625,-84.375,31.75,34.98046875
2284,0.349853515625,-0.093017578125,0.66455078125,2.5625,-84.375,31.75,34.98046875
2287,0.356689453125,-0.062744140625,0.642578125,2.125,-81.5,29.4375,34.98046875
2289,0.356689453125,-0.062744140625,0.642578125,2.125,-65.5,25.9375,34.98046875
2291,0.37890625,-0.035888671875,0.599609375,3.5625,-79.875,25.9375,34.98046875
2293,0.37890625,-0.035888671875,0.599609375,3.5625,-79.875,25.9375,34.98046875
2294,0.3974609375,-0.012451171875,0.547119140625,7.625,-80.0,22.1875,34.98046875
2296,0.3974609375,-0.012451171875,0.547119140625,7.625,-80.0,22.1875,34.98046875
2298,0.39990234375,0.00537109375,0.5,13.5,-80.75,18.4375,34.98046875
2301,0.39990234375,0.00537109375,0.5,13.5,-80.75,18.4375,34.98046875
2302,0.388671875,0.01611328125,0.470703125,20.25,-80.875,15.125,34.98046875
2304,0.388671875,0.01611328125,0.470703125,20.25,-80.875,15.125,34.98046875
2306,0.388671875,0.01611328125,0.470703125,20.25,-80.875,15.125,34.98046875
2308,0.38330078125,0.01513671875,0.447998046875,26.8125,-79.8125,12.625,34.98046875
2311,0.38330078125,0.01513671875,0.447998046875,26.8125,-79.8125,12.625,34.98046875
2313,0.39990234375,-0.005859375,0.412353515625,33.75,-77.1875,11.3125,34.98046875
2315,0.39990234375,-0.005859375,0.412353515625,33.75,-74.25,10.9375,34.98046875
2317,0.427734375,-0.03857421875,0.35986328125,41.125,-74.25,10.9375,34.98046875
2319,0.427734375,-0.03857421875,0.35986328125,41.125,-74.25,10.9375,34.98046875
2321,0.437255859375,-0.071044921875,0.3076171875,47.625,-71.3125,10.625,34.98046875
2323,0.437255859375,-0.071044921875,0.3076171875,47.625,-71.3125,10.625,34.98046875
2325,0.423583984375,-0.09716796875,0.283935546875,51.3125,-67.1875,10.8125,34.98046875
2327,0.423583984375,-0.09716796875,0.283935546875,51.3125,-67.1875,10.8125,34.98046875
2329,0.423583984375,-0.1064453125,0.28955078125,51.6875,-60.9375,11.125,34.98046875
2331,0.39990234375,-0.1064453125,0.28955078125,51.6875,-60.9375,11.125,34.98046875
2334,0.385498046875,-0.10693359375,0.303955078125,49.5625,-52.75,11.125,34.98046875
2335,0.385498046875,-0.10693359375,0.303955078125,49.5625,-52.75,11.125,34.98046875
2337,0.385498046875,-0.10693359375,0.303955078125,49.5625,-52.75,11.125,34.98046875
2339,0.39404296875,-0.10498046875,0.296630859375,47.25,-44.375,10.875,34.98046875
2341,0.39404296875,-0.10498046875,0.296630859375,47.25,-44.375,10.875,34.98046875
2343,0.411865234375,-0.110595703125,0.278564453125,44.6875,-37.5,10.75,34.98046875
2345,0.411865234375,-0.110595703125,0.278564453125,44.6875,-37.5,10.75,34.98046875
2347,0.42431640625,-0.111328125,0.26416015625,41.25,-31.8125,11.3125,34.98046875
2349,0.42431640625,-0.111328125,0.26416015625,41.25,-31.8125,11.3125,34.98046875
2351,0.41845703125,-0.11083984375,0.25048828125,39.5625,-27.375,12.75,34.98046875
2353,0.41845703125,-0.11083984375,0.25048828125,39.5625,-27.375,12.75,34.98046875
2356,0.421142578125,-0.10791015625,0.239501953125,38.8125,-23.0625,13.9375,34.98046875
2358,0.421142578125,-0.10791015625,0.239501953125,38.8125,-23.0625,13.9375,34.98046875
2362,0.444091796875,-0.11328125,0.214599609375,37.8125,-20.0625,14.25,34.98046875
2364,0.444091796875,-0.11328125,0.214599609375,37.8125,-20.0625,14.25,34.98046875
2365,0.484619140625,-0.123779296875,0.171630859375,36.0625,-18.5625,13.25,34.98046875
2368,0.484619140625,-0.123779296875,0.171630859375,36.0625,-18.5625,13.25,34.98046875
2370,0.52978515625,-0.13330078125,0.11572265625,34.375,-18.6875,11.3125,34.98046875
2372,0.52978515625,-0.13330078125,0.11572265625,34.375,-18.6875,11.3125,34.98046875
2373,0.560302734375,-0.135498046875,0.07470703125,32.375,-19.8125,9.1875,34.98046875
2375,0.560302734375,-0.135498046875,0.07470703125,32.375,-19.8125,9.1875,34.98046875
2377,0.560302734375,-0.135498046875,0.07470703125,32.375,-19.8125,9.1875,34.98046875
2380,0.5654296875,-0.122802734375,0.0673828125,29.8125,-19.25,8.0,34.98046875
2382,0.5654296875,-0.104248046875,0.085205078125,26.8125,-15.6875,7.75,34.98046875
2384,0.56982421875,-0.104248046875,0.085205078125,26.8125,-15.6875,7.75,34.98046875
2386,0.56982421875,-0.104248046875,0.085205078125,26.8125,-15.6875,7.75,34.98046875
2388,0.603271484375,-0.09814453125,0.10107421875,24.3125,-9.0,7.8125,34.98046875
2390,0.603271484375,-0.09814453125,0.10107421875,24.3125,-9.0,7.8125,34.98046875
2392,0.671142578125,-0.1083984375,0.093994140625,23.4375,-1.0625,8.75,34.94140625
2394,0.671142578125,-0.1083984375,0.093994140625,23.4375,-1.0625,8.75,34.94140625
2396,0.74853515625,-0.1318359375,0.069580078125,24.3125,6.0625,10.0625,34.94140625
2398,0.74853515625,-0.1318359375,0.069580078125,24.3125,6.0625,10.0625,34.94140625
2400,0.74853515625,-0.1318359375,0.05322265625,26.5,11.625,11.1875,34.94140625
2402,0.798095703125,-0.1611328125,0.05322265625,26.5,11.625,11.1875,34.94140625
2404,0.8232421875,-0.196533203125,0.054443359375,28.0625,16.375,12.1875,34.94140625
2406,0.8232421875,-0.196533203125,0.054443359375,28.0625,16.375,12.1875,34.94140625
2408,0.8232421875,-0.196533203125,0.054443359375,28.0625,16.375,12.1875,34.94140625
2410,0.828369140625,-0.226806640625,0.079833984375,28.4375,21.5,12.4375,34.94140625
2412,0.828369140625,-0.226806640625,0.079833984375,28.4375,21.5,12.4375,34.94140625
2414,0.819580078125,-0.2490234375,0.123046875,27.375,27.3125,11.75,34.94140625
2416,0.819580078125,-0.2490234375,0.123046875,27.375,27.3125,11.75,34.94140625
2418,0.81103515625,-0.269287109375,0.16455078125,25.4375,32.5625,9.6875,34.94140625
2420,0.81103515625,-0.269287109375,0.16455078125,25.4375,32.5625,9.6875,34.94140625
2422,0.81103515625,-0.269287109375,0.193115234375,22.625,36.625,7.125,34.94140625
2425,0.814208984375,-0.28564453125,0.193115234375,22.625,36.625,7.125,34.94140625
2427,0.823486328125,-0.294189453125,0.206298828125,20.0,39.0,4.375,34.94140625
2428,0.823486328125,-0.294189453125,0.206298828125,20.0,39.0,4.375,34.94140625
2430,0.823486328125,-0.294189453125,0.206298828125,20.0,39.0,4.375,34.94140625
2432,0.850830078125,-0.294189453125,0.203369140625,17.3125,39.125,1.8125,34.94140625
2435,0.850830078125,-0.294189453125,0.203369140625,17.3125,39.125,1.8125,34.94140625
2437,0.9111328125,-0.275634765625,0.187744140625,15.0625,37.375,-0.875,34.94140625
2439,0.9111328125,-0.275634765625,0.187744140625,15.0625,37.375,-0.875,34.94140625
2441,0.97802734375,-0.2431640625,0.172119140625,14.25,33.875,-4.0625,34.94140625
2443,0.97802734375,-0.2431640625,0.172119140625,14.25,33.875,-4.0625,34.94140625
2444,1.025390625,-0.226806640625,0.156494140625,15.25,28.75,-7.875,34.94140625
2447,1.025390625,-0.226806640625,0.156494140625,15.25,28.75,-7.875,34.94140625
2449,1.04150390625,-0.214111328125,0.154052734375,18.625,22.4375,-12.4375,34.94140625
2451,1.04150390625,-0.214111328125,0.154052734375,18.625,22.4375,-12.4375,34.94140625
2453,1.04150390625,-0.201416015625,0.162353515625,22.1875,17.125,-17.5625,34.94140625
2455,1.036865234375,-0.201416015625,0.162353515625,22.1875,17.125,-17.5625,34.94140625
2457,1.036865234375,-0.201416015625,0.162353515625,22.1875,17.125,-17.5625,34.94140625
2459,1.02880859375,-0.17529296875,0.172607421875,24.3125,14.625,-23.4375,34.94140625
2461,1.02880859375,-0.17529296875,0.172607421875,24.3125,14.625,-23.4375,34.94140625
2463,1.0205078125,-0.134765625,0.190673828125,24.25,14.75,-29.625,34.94140625
2466,1.013916015625,-0.090087890625,0.21630859375,22.25,16.875,-35.25,34.94140625
2469,1.013916015625,-0.090087890625,0.21630859375,22.25,16.875,-35.25,34.94140625
2471,1.00830078125,-0.0458984375,0.24365234375,19.0625,20.1875,-39.9375,34.94140625
2473,1.00830078125,-0.0458984375,0.24365234375,19.0625,20.1875,-39.9375,34.94140625
2475,1.00830078125,-0.0458984375,0.24365234375,19.0625,20.1875,-39.9375,34.94140625
2477,1.009765625,-0.005615234375,0.260986328125,15.0625,23.5625,-43.3125,34.94140625
2479,1.009765625,-0.005615234375,0.260986328125,15.0625,23.5625,-43.3125,34.94140625
2481,1.015625,0.025390625,0.26025390625,11.9375,24.8125,-44.6875,34.94140625
2483,1.015625,0.025390625,0.26025390625,11.9375,24.8125,-44.6875,34.94140625
2485,1.0146484375,0.049560546875,0.248046875,9.75,24.75,-43.75,34.94140625
2486,1.0146484375,0.049560546875,0.248046875,9.75,24.75,-43.75,34.94140625
2488,0.990966796875,0.061279296875,0.243896484375,7.4375,23.875,-40.25,34.94140625
2491,0.990966796875,0.061279296875,0.243896484375,7.4375,23.875,-40.25,34.94140625
2493,0.949951171875,0.061279296875,0.247802734375,5.25,22.9375,-34.875,34.94140625
2495,0.949951171875,0.061279296875,0.247802734375,5.25,22.9375,-34.875,34.94140625
2497,0.949951171875,0.061279296875,0.247802734375,5.25,22.9375,-34.875,34.94140625
2499,0.91552734375,0.060791015625,0.253173828125,3.3125,22.0625,-29.1875,34.94140625
2501,0.91552734375,0.060791015625,0.253173828125,3.3125,22.0625,-29.1875,34.94140625
2503,0.910888671875,0.05712890625,0.242919921875,1.6875,21.375,-23.9375,34.94140625
2505,0.910888671875,0.05712890625,0.242919921875,1.6875,21.375,-23.9375,34.94140625
2507,0.919677734375,0.052001953125,0.225830078125,0.375,21.4375,-19.6875,34.94140625
2509,0.919677734375,0.052001953125,0.225830078125,0.375,21.4375,-19.6875,34.94140625
2510,0.919677734375,0.0517578125,0.20361328125,-0.9375,22.4375,-16.875,34.94140625
2512,0.931396484375,0.0517578125,0.20361328125,-0.9375,22.4375,-16.875,34.94140625
2515,0.959716796875,0.047119140625,0.178466796875,-1.9375,24.375,-15.6875,34.94140625
2518,0.959716796875,0.047119140625,0.178466796875,-1.9375,24.375,-15.6875,34.94140625
2520,0.995849609375,0.03173828125,0.15478515625,-3.25,26.25,-15.9375,34.94140625
2521,0.995849609375,0.03173828125,0.15478515625,-3.25,26.25,-15.9375,34.94140625
2523,0.995849609375,0.03173828125,0.15478515625,-3.25,26.25,-15.9375,34.94140625
2525,1.044921875,0.023681640625,0.122802734375,-3.875,28.3125,-17.5,34.94140625
2527,1.044921875,0.023681640625,0.122802734375,-3.875,28.3125,-17.5,34.94140625
2529,1.09130859375,0.027587890625,0.105712890625,-3.4375,30.4375,-19.375,34.94140625
2531,1.09130859375,0.027587890625,0.105712890625,-3.4375,30.4375,-19.375,34.94140625
2533,1.106201171875,0.036865234375,0.126953125,-1.875,33.0,-20.375,34.9609375
2536,1.106201171875,0.036865234375,0.126953125,-1.875,33.0,-20.375,34.9609375
2538,1.100341796875,0.033935546875,0.18017578125,0.9375,35.5625,-21.0625,34.9609375
2540,1.100341796875,0.033935546875,0.18017578125,0.9375,35.5625,-21.0625,34.9609375
2542,1.0888671875,0.026123046875,0.24951171875,4.6875,38.625,-21.9375,34.9609375
2544,1.0888671875,0.026123046875,0.24951171875,4.6875,38.625,-21.9375,34.9609375
2546,1.0888671875,0.026123046875,0.24951171875,4.6875,38.625,-21.9375,34.9609375
2548,1.075439453125,0.01904296875,0.308349609375,8.125,42.5625,-23.0625,34.9609375
2550,1.075439453125,0.01904296875,0.308349609375,8.125,42.5625,-23.0625,34.9609375
2552,1.062744140625,0.00390625,0.356201171875,10.0,46.875,-25.0,34.9609375
2554,1.062744140625,0.00390625,0.356201171875,10.0,46.875,-25.0,34.9609375
2555,1.0478515625,-0.0224609375,0.398193359375,10.125,50.3125,-28.0625,34.9609375
2557,1.0478515625,-0.0224609375,0.398193359375,10.125,50.3125,-28.0625,34.9609375
2560,1.03125,-0.053955078125,0.43212890625,8.75,53.0625,-31.8125,34.9609375
2562,1.03125,-0.053955078125,0.43212890625,8.75,53.0625,-31.8125,34.9609375
2564,1.010986328125,-0.07421875,0.464111328125,5.8125,55.75,-35.125,34.9609375
2566,1.010986328125,-0.07421875,0.464111328125,5.8125,55.75,-35.125,34.9609375
2568,1.010986328125,-0.07421875,0.464111328125,5.8125,55.75,-35.125,34.9609375
2570,0.99365234375,-0.08349609375,0.49853515625,0.75,58.875,-37.1875,34.9609375
2572,0.99365234375,-0.08349609375,0.49853515625,0.75,58.875,-37.1875,34.9609375
2574,0.9931640625,-0.087890625,0.514892578125,-4.4375,60.9375,-39.0625,34.9609375
2576,0.9931640625,-0.087890625,0.514892578125,-4.4375,60.9375,-39.0625,34.9609375
2577,1.001953125,-0.094482421875,0.50439453125,-7.625,60.9375,-41.25,34.9609375
2579,1.001953125,-0.094482421875,0.50439453125,-7.625,60.9375,-41.25,34.9609375
2582,1.02587890625,-0.095947265625,0.467529296875,-9.5,59.75,-44.1875,34.9609375
2584,1.02587890625,-0.095947265625,0.467529296875,-9.5,59.75,-44.1875,34.9609375
2586,1.091552734375,-0.08203125,0.3955078125,-11.4375,57.625,-48.0,34.9609375
2588,1.091552734375,-0.08203125,0.3955078125,-11.4375,57.625,-48.0,34.9609375
2590,1.091552734375,-0.08203125,0.3955078125,-11.4375,57.625,-48.0,34.9609375
2592,1.173828125,-0.057861328125,0.335693359375,-12.75,54.25,-51.875,34.9609375
2594,1.173828125,-0.057861328125,0.335693359375,-12.75,54.25,-51.875,34.9609375
2596,1.23046875,-0.042724609375,0.296630859375,-11.75,50.3125,-54.625,34.9609375
2598,1.23046875,-0.042724609375,0.296630859375,-11.75,50.3125,-54.625,34.9609375
2600,1.2587890625,-0.0283203125,0.291015625,-7.9375,48.125,-55.75,34.9609375
2602,1.2587890625,-0.0283203125,0.291015625,-7.9375,48.125,-55.75,34.9609375
2604,1.281005859375,-0.019287109375,0.302001953125,-4.25,47.125,-56.5,34.9609375
2606,1.281005859375,-0.019287109375,0.302001953125,-4.25,47.125,-56.5,34.9609375
2608,1.325439453125,-0.0048828125,0.2958984375,-2.1875,47.125,-57.5625,34.9609375
2610,1.325439453125,-0.0048828125,0.2958984375,-2.1875,47.125,-57.5625,34.9609375
2612,1.325439453125,-0.0048828125,0.2958984375,-2.1875,63.125,-57.875,34.9609375
2614,1.38818359375,0.021728515625,0.287109375,-1.5625,48.75,-57.875,34.9609375
2616,1.38818359375,0.021728515625,0.287109375,-1.5625,48.75,-57.875,34.9609375
2618,1.443359375,0.05712890625,0.29248046875,-2.5625,52.4375,-56.5,34.9609375
2620,1.443359375,0.05712890625,0.29248046875,-2.5625,52.4375,-56.5,34.9609375
2622,1.484130859375,0.09716796875,0.327880859375,-5.25,57.5,-52.6875,34.9609375
2624,1.484130859375,0.09716796875,0.327880859375,-5.25,57.5,-52.6875,34.9609375
2626,1.515869140625,0.138916015625,0.39990234375,-7.875,62.8125,-47.5625,34.9609375
2628,1.515869140625,0.138916015625,0.39990234375,-7.875,62.8125,-47.5625,34.9609375
2630,1.54443359375,0.1708984375,0.474853515625,-10.125,67.8125,-42.0,34.9609375
2632,1.54443359375,0.1708984375,0.474853515625,-10.125,67.8125,-42.0,34.9609375
2634,1.54443359375,0.1708984375,0.474853515625,-10.125,67.8125,-42.0,34.9609375
2636,1.568115234375,0.185546875,0.53662109375,-11.125,70.5625,-36.625,34.9609375
2638,1.568115234375,0.185546875,0.53662109375,-11.125,70.5625,-36.625,34.9609375
2640,1.5849609375,0.18505859375,0.587890625,-10.75,70.5,-30.6875,34.9609375
2642,1.5849609375,0.18505859375,0.587890625,-10.75,70.5,-30.6875,34.9609375
2644,1.59130859375,0.174072265625,0.633544921875,-9.5,68.25,-24.875,34.9609375
2646,1.59130859375,0.174072265625,0.633544921875,-9.5,68.25,-24.875,34.9609375
2648,1.59375,0.1513671875,0.67236328125,-8.125,64.0625,-21.1875,34.9609375
2650,1.59375,0.1513671875,0.67236328125,-8.125,64.0625,-21.1875,34.9609375
2652,1.59375,0.1513671875,0.67236328125,-8.125,64.0625,-21.1875,34.9609375
2654,1.58642578125,0.117431640625,0.69873046875,-7.375,57.875,-19.75,34.9609375
2656,1.58642578125,0.117431640625,0.69873046875,-7.375,57.875,-19.75,34.9609375
2658,1.564697265625,0.076171875,0.709716796875,-7.1875,49.4375,-20.0,34.9609375
2660,1.564697265625,0.076171875,0.709716796875,-7.1875,49.4375,-20.0,34.9609375
2662,1.531494140625,0.039794921875,0.71484375,-6.9375,38.75,-21.4375,34.9609375
2664,1.531494140625,0.039794921875,0.71484375,-6.9375,38.75,-21.4375,34.9609375
2666,1.493896484375,0.008056640625,0.702392578125,-6.5625,26.5625,-23.5625,34.9609375
2668,1.493896484375,0.008056640625,0.702392578125,-6.5625,26.5625,-23.5625,34.9609375
2670,1.45849609375,-0.01708984375,0.6630859375,-6.5625,13.0625,-26.875,34.9609375
2672,1.45849609375,-0.01708984375,0.6630859375,-6.5625,13.0625,-26.875,34.9609375
2674,1.45849609375,-0.042724609375,0.617431640625,-6.8125,-0.8125,-31.0,34.9609375
2677,1.40771484375,-0.042724609375,0.617431640625,-6.8125,-0.8125,-31.0,34.95703125
2679,1.40771484375,-0.060302734375,0.56494140625,-7.0625,-14.1875,-34.875,34.95703125
2681,1.353271484375,-0.060302734375,0.56494140625,-7.0625,-14.1875,-34.875,34.95703125
2683,1.353271484375,-0.060302734375,0.56494140625,-7.0625,-14.1875,-34.875,34.95703125
2685,1.296142578125,-0.066162109375,0.519775390625,-8.375,-25.5,-37.4375,34.95703125
2687,1.296142578125,-0.066162109375,0.519775390625,-8.375,-25.5,-37.4375,34.95703125
2689,1.243896484375,-0.067138671875,0.491943359375,-10.6875,-34.4375,-38.0,34.95703125
2690,1.243896484375,-0.067138671875,0.491943359375,-10.6875,-34.4375,-38.0,34.95703125
2692,1.20751953125,-0.063720703125,0.46484375,-13.3125,-41.1875,-37.375,34.95703125
2695,1.20751953125,-0.063720703125,0.46484375,-13.3125,-41.1875,-37.375,34.95703125
2697,1.189453125,-0.05029296875,0.439697265625,-15.9375,-45.5625,-35.6875,34.95703125
2699,1.189453125,-0.05029296875,0.439697265625,-15.9375,-45.5625,-35.6875,34.95703125
2701,1.189453125,-0.05029296875,0.439697265625,-31.9375,-48.1875,-33.0625,34.95703125
2703,1.176025390625,-0.0341796875,0.42626953125,-19.1875,-48.1875,-33.0625,34.95703125
2705,1.176025390625,-0.0341796875,0.42626953125,-19.1875,-48.1875,-33.0625,34.95703125
2707,1.171875,-0.02783203125,0.41064453125,-22.3125,-49.4375,-30.25,34.95703125
2709,1.171875,-0.02783203125,0.41064453125,-22.3125,-49.4375,-30.25,34.95703125
2710,1.17529296875,-0.02783203125,0.369384765625,-24.0,-50.5,-27.1875,34.95703125
2713,1.17529296875,-0.02783203125,0.369384765625,-24.0,-50.5,-27.1875,34.95703125
2714,1.168212890625,-0.03564453125,0.328125,-26.1875,-50.875,-23.5,34.95703125
2717,1.168212890625,-0.03564453125,0.328125,-26.1875,-50.875,-23.5,34.95703125
2719,1.146484375,-0.046875,0.3017578125,-29.5625,-50.0,-19.1875,34.95703125
2721,1.146484375,-0.046875,0.3017578125,-29.5625,-50.0,-19.1875,34.95703125
2723,1.129638671875,-0.04248046875,0.28466796875,-32.0625,-46.625,-14.5625,34.95703125
2725,1.129638671875,-0.04248046875,0.28466796875,-32.0625,-46.625,-14.5625,34.95703125
2728,1.12841796875,-0.028076171875,0.26513671875,-32.8125,-41.5,-10.4375,34.95703125
2729,1.12841796875,-0.028076171875,0.26513671875,-32.8125,-41.5,-10.4375,34.95703125
2731,1.12841796875,-0.028076171875,0.26513671875,-32.8125,-41.5,-10.4375,34.95703125
2733,1.14501953125,-0.0185546875,0.244140625,-32.25,-36.8125,-7.625,34.95703125
2735,1.14501953125,-0.0185546875,0.244140625,-32.25,-36.8125,-7.625,34.95703125
2737,1.16162109375,-0.025146484375,0.224853515625,-29.9375,-33.3125,-5.9375,34.95703125
2739,1.16162109375,-0.025146484375,0.224853515625,-29.9375,-33.3125,-5.9375,34.95703125
2741,1.146484375,-0.031005859375,0.202392578125,-26.5625,-31.375,-4.1875,34.95703125
2744,1.146484375,-0.031005859375,0.202392578125,-26.5625,-31.375,-4.1875,34.95703125
2746,1.122314453125,-0.0341796875,0.192138671875,-22.3125,-30.125,-2.0625,34.95703125
2748,1.122314453125,-0.0341796875,0.192138671875,-22.3125,-30.125,-2.0625,34.95703125
2750,1.106201171875,-0.030517578125,0.18017578125,-17.5625,-28.375,-0.25,34.95703125
2752,1.106201171875,-0.030517578125,0.18017578125,-17.5625,-28.375,-0.25,34.95703125
2754,1.106201171875,-0.030517578125,0.18017578125,-17.5625,-28.375,-0.25,34.95703125
2756,1.089111328125,-0.014892578125,0.16650390625,-12.5,-26.75,1.375,34.95703125
2758,1.089111328125,-0.014892578125,0.16650390625,-12.5,-26.75,1.375,34.95703125
2760,1.07373046875,0.005126953125,0.15478515625,-7.6875,-25.4375,3.0625,34.95703125
2762,1.07373046875,0.005126953125,0.15478515625,-7.6875,-25.4375,3.0625,34.95703125
2764,1.059814453125,0.020263671875,0.144287109375,-2.9375,-24.125,5.0625,34.95703125
2766,1.059814453125,0.020263671875,0.144287109375,-2.9375,-24.125,5.0625,34.95703125
2768,1.0439453125,0.01953125,0.1357421875,0.0625,-23.25,6.125,34.95703125
2770,1.0439453125,0.01953125,0.1357421875,0.0625,-23.25,6.125,34.95703125
2772,1.03271484375,-0.002197265625,0.1279296875,-1.0625,-22.6875,5.1875,34.95703125
2774,1.03271484375,-0.002197265625,0.1279296875,-1.0625,-22.6875,5.1875,34.95703125
2776,1.03271484375,-0.002197265625,0.1279296875,-1.0625,-22.6875,3.25,34.95703125
2778,1.03759765625,-0.01123046875,0.126220703125,-6.375,-22.0,3.25,34.95703125
2780,1.03759765625,-0.01123046875,0.126220703125,-6.375,-22.0,3.25,34.95703125
2782,1.0517578125,0.006103515625,0.137451171875,-13.625,-20.375,1.9375,34.95703125
2784,1.0517578125,0.006103515625,0.137451171875,-13.625,-20.375,1.9375,34.95703125
2786,1.06591796875,0.036865234375,0.14892578125,-19.875,-17.9375,1.25,34.95703125
2788,1.06591796875,0.036865234375,0.14892578125,-19.875,-17.9375,1.25,34.95703125
2790,1.088623046875,0.07421875,0.146728515625,-23.5,-15.5,-0.4375,34.95703125
2792,1.088623046875,0.07421875,0.146728515625,-23.5,-15.5,-0.4375,34.95703125
2794,1.120849609375,0.115234375,0.135498046875,-24.5,-13.5,-2.875,34.95703125
2796,1.120849609375,0.115234375,0.135498046875,-24.5,-13.5,-2.875,34.95703125
2798,1.120849609375,0.177734375,0.12744140625,-23.0,-12.0,-6.1875,34.95703125
2800,1.149658203125,0.162353515625,0.12744140625,-23.0,-12.0,-6.1875,34.95703125
2802,1.149658203125,0.162353515625,0.12744140625,-23.0,-12.0,-6.1875,34.95703125
2804,1.1708984375,0.207763671875,0.129638671875,-18.75,-10.6875,-8.625,34.95703125
2807,1.1708984375,0.207763671875,0.129638671875,-18.75,-10.6875,-8.625,34.95703125
2808,1.1806640625,0.25244140625,0.134765625,-11.1875,-9.375,-9.625,34.95703125
2811,1.1806640625,0.25244140625,0.134765625,-11.1875,-9.375,-9.625,34.95703125
2813,1.187255859375,0.290771484375,0.125732421875,-2.125,-8.5625,-9.5,34.95703125
2815,1.187255859375,0.290771484375,0.125732421875,-2.125,-8.5625,-9.5,34.95703125
2817,1.1982421875,0.31787109375,0.10546875,7.0,-8.0625,-8.3125,34.9765625
2819,1.1982421875,0.31787109375,0.10546875,7.0,-8.0625,-8.3125,34.9765625
2821,1.2109375,0.330810546875,0.09033203125,15.625,-8.1875,-5.3125,34.9765625
2823,1.2109375,0.330810546875,0.09033203125,15.625,-8.1875,-5.3125,34.9765625
2824,1.2109375,0.330810546875,0.09033203125,15.625,-8.1875,-5.3125,34.9765625
2826,1.220458984375,0.329833984375,0.08349609375,23.625,-8.5625,-0.4375,34.9765625
2829,1.220458984375,0.329833984375,0.08349609375,23.625,-8.5625,-0.4375,34.9765625
2831,1.224609375,0.312744140625,0.068115234375,30.25,-8.1875,6.9375,34.9765625
2832,1.224609375,0.312744140625,0.068115234375,30.25,-8.1875,6.9375,34.9765625
2835,1.2451171875,0.285400390625,0.02294921875,34.1875,-7.5,17.0625,34.9765625
2837,1.2451171875,0.285400390625,0.02294921875,34.1875,-7.5,17.0625,34.9765625
2839,1.27197265625,0.239990234375,-0.031982421875,35.0625,-7.3125,29.8125,34.9765625
2841,1.27197265625,0.239990234375,-0.031982421875,35.0625,-7.3125,29.8125,34.9765625
2843,1.2744140625,0.19091796875,-0.0478515625,35.125,-6.0,45.1875,34.9765625
2845,1.2744140625,0.19091796875,-0.0478515625,35.125,-6.0,45.1875,34.9765625
2846,1.2744140625,0.19091796875,-0.0478515625,35.125,-6.0,45.1875,34.9765625
2848,1.287841796875,0.17724609375,-0.109375,30.3125,-3.875,62.5625,34.9765625
2851,1.287841796875,0.17724609375,-0.109375,30.3125,-3.875,62.5625,34.9765625
2853,1.30078125,0.12744140625,-0.126708984375,25.0,-2.125,79.875,34.9765625
2854,1.30078125,0.12744140625,-0.126708984375,25.0,-2.125,79.875,34.9765625
2856,1.3125,0.090087890625,-0.126953125,21.25,0.375,96.5,34.9765625
2859,1.3125,0.090087890625,-0.126953125,21.25,0.375,96.5,34.9765625
2861,1.327392578125,0.052978515625,-0.13232421875,17.375,3.9375,111.9375,34.9765625
2863,1.327392578125,0.052978515625,-0.13232421875,17.375,3.9375,111.9375,34.9765625
2865,1.327392578125,0.052978515625,-0.128173828125,11.1875,8.9375,124.625,34.9765625
2867,1.353271484375,-0.005126953125,-0.128173828125,11.1875,8.9375,124.625,34.9765625
2869,1.353271484375,-0.005126953125,-0.128173828125,11.1875,8.9375,124.625,34.9765625
2870,1.3935546875,-0.079833984375,-0.11474609375,1.3125,14.25,133.25,34.9765625
2872,1.3935546875,-0.079833984375,-0.11474609375,1.3125,14.25,133.25,34.9765625
2875,1.4453125,-0.146240234375,-0.1005859375,-10.8125,18.625,137.8125,34.9765625
2876,1.4453125,-0.146240234375,-0.1005859375,-10.8125,18.625,137.8125,34.9765625
2878,1.492431640625,-0.1884765625,-0.0791015625,-21.875,21.875,139.875,34.9765625
2881,1.492431640625,-0.1884765625,-0.0791015625,-21.875,21.875,139.875,34.9765625
2883,1.52783203125,-0.20361328125,-0.04150390625,-29.125,23.75,139.625,34.9765625
2885,1.52783203125,-0.20361328125,-0.04150390625,-29.125,23.75,139.625,34.9765625
2887,1.52783203125,-0.20361328125,-0.04150390625,-29.125,23.75,136.75,34.9765625
2889,1.547607421875,-0.19287109375,0.002685546875,-30.625,24.125,136.75,34.9765625
2890,1.547607421875,-0.19287109375,0.002685546875,-30.625,24.125,136.75,34.9765625
2892,1.5517578125,-0.176025390625,0.048828125,-26.875,23.0625,130.875,34.9765625
2894,1.5517578125,-0.176025390625,0.048828125,-26.875,23.0625,130.875,34.9765625
2897,1.55712890625,-0.16650390625,0.089599609375,-18.875,20.4375,122.4375,34.9765625
2899,1.55712890625,-0.16650390625,0.089599609375,-18.875,20.4375,122.4375,34.9765625
2901,1.567626953125,-0.160400390625,0.109130859375,-7.5,15.8125,112.375,34.9765625
2903,1.567626953125,-0.160400390625,0.109130859375,-7.5,15.8125,112.375,34.9765625
2905,1.561279296875,-0.15869140625,0.120849609375,4.5625,9.5625,102.6875,34.9765625
2907,1.561279296875,-0.15869140625,0.120849609375,4.5625,9.5625,102.6875,34.9765625
2909,1.561279296875,-0.15869140625,0.120849609375,4.5625,9.5625,94.875,34.9765625
2911,1.545166015625,-0.166015625,0.134765625,16.25,2.6875,94.875,34.9765625
2913,1.545166015625,-0.166015625,0.134765625,16.25,2.6875,94.875,34.9765625
2915,1.522216796875,-0.18017578125,0.143798828125,27.0625,-5.25,89.0625,34.9765625
2917,1.522216796875,-0.18017578125,0.143798828125,27.0625,-5.25,89.0625,34.9765625
2919,1.4833984375,-0.207275390625,0.144775390625,35.125,-13.4375,85.375,34.9765625
2921,1.4833984375,-0.207275390625,0.144775390625,35.125,-13.4375,85.375,34.9765625
2924,1.448486328125,-0.24169921875,0.136474609375,39.75,-21.125,84.4375,34.9765625
2926,1.448486328125,-0.24169921875,0.136474609375,39.75,-21.125,84.4375,34.9765625
2928,1.41162109375,-0.283447265625,0.13427734375,40.125,-28.0625,86.625,34.9765625
2931,1.41162109375,-0.283447265625,0.13427734375,40.125,-28.0625,86.625,34.9765625
2932,1.37744140625,-0.334716796875,0.12841796875,35.4375,-33.6875,91.3125,34.9765625
2934,1.37744140625,-0.334716796875,0.12841796875,35.4375,-33.6875,91.3125,34.9765625
2936,1.349609375,-0.385986328125,0.111083984375,28.1875,-39.5625,98.1875,34.9765625
2938,1.349609375,-0.385986328125,0.111083984375,28.1875,-39.5625,98.1875,34.9765625
2941,1.331787109375,-0.43994140625,0.09912109375,17.875,-44.375,106.5,34.9765625
2943,1.331787109375,-0.43994140625,0.09912109375,17.875,-44.375,106.5,34.9765625
2945,1.331787109375,-0.5,0.089111328125,5.1875,-49.0,114.625,34.9765625
2946,1.3173828125,-0.5,0.089111328125,5.1875,-49.0,114.625,34.9765625
2949,1.3173828125,-0.5,0.089111328125,-10.8125,-53.5625,122.1875,34.9765625
2951,1.317626953125,-0.552001953125,0.06591796875,-8.5,-53.5625,122.1875,34.9765625
2953,1.317626953125,-0.552001953125,0.06591796875,-8.5,-53.5625,122.1875,34.9765625
2955,1.33154296875,-0.58740234375,0.03564453125,-22.25,-58.25,128.0,34.9765625
2957,1.33154296875,-0.58740234375,0.03564453125,-22.25,-58.25,128.0,34.9765625
2958,1.33984375,-0.60498046875,0.010009765625,-35.5625,-63.4375,131.3125,34.96484375
2960,1.33984375,-0.60498046875,0.010009765625,-35.5625,-63.4375,131.3125,34.96484375
2962,1.33349609375,-0.607177734375,-0.015380859375,-47.3125,-69.1875,130.4375,34.96484375
2965,1.33349609375,-0.607177734375,-0.015380859375,-47.3125,-69.1875,130.4375,34.96484375
2966,1.33349609375,-0.607177734375,-0.015380859375,-47.3125,-69.1875,114.4375,34.96484375
2968,1.32763671875,-0.5859375,-0.041259765625,-55.125,-75.75,127.0625,34.96484375
2971,1.32958984375,-0.53662109375,-0.05419921875,-58.25,-81.25,121.625,34.96484375
2973,1.32958984375,-0.53662109375,-0.05419921875,-58.25,-81.25,121.625,34.96484375
2975,1.32958984375,-0.53662109375,-0.05419921875,-58.25,-81.25,121.625,34.96484375
2977,1.3369140625,-0.473876953125,-0.052001953125,-56.3125,-84.375,115.0625,34.96484375
2979,1.3369140625,-0.473876953125,-0.052001953125,-56.3125,-84.375,115.0625,34.96484375
2981,1.341552734375,-0.416259765625,-0.051025390625,-48.875,-84.625,106.8125,34.96484375
2983,1.341552734375,-0.416259765625,-0.051025390625,-48.875,-84.625,106.8125,34.96484375
2985,1.326171875,-0.36767578125,-0.049560546875,-38.0625,-82.5625,96.6875,34.96484375
2987,1.326171875,-0.36767578125,-0.049560546875,-38.0625,-82.5625,96.6875,34.96484375
2989,1.263671875,-0.326416015625,-0.047119140625,-26.0625,-78.8125,85.0625,34.96484375
2991,1.297607421875,-0.326416015625,-0.047119140625,-26.0625,-78.8125,85.0625,34.96484375
2994,1.2607421875,-0.299072265625,-0.037841796875,-14.0,-73.9375,72.5625,34.96484375
2996,1.2607421875,-0.299072265625,-0.037841796875,-14.0,-73.9375,72.5625,34.96484375
2998,1.228515625,-0.269287109375,-0.0302734375,-3.5625,-67.25,61.3125,34.96484375
3000,1.228515625,-0.269287109375,-0.0302734375,-3.5625,-67.25,61.3125,34.96484375
3002,1.228515625,-0.269287109375,-0.0302734375,-3.5625,-67.25,61.3125,34.96484375
3004,1.193603515625,-0.2392578125,-0.03271484375,4.1875,-58.75,52.375,34.96484375
3005,1.193603515625,-0.2392578125,-0.03271484375,4.1875,-58.75,52.375,34.96484375
3008,1.15185546875,-0.215087890625,-0.036376953125,9.0,-49.0625,46.125,34.96484375
3010,1.15185546875,-0.215087890625,-0.036376953125,9.0,-49.0625,46.125,34.96484375
3012,1.1103515625,-0.196044921875,-0.0400390625,10.875,-38.4375,42.3125,34.96484375
3014,1.1103515625,-0.196044921875,-0.0400390625,10.875,-38.4375,42.3125,34.96484375
3016,1.0751953125,-0.167724609375,-0.041015625,9.8125,-27.0625,40.75,34.96484375
3018,1.0751953125,-0.167724609375,-0.041015625,9.8125,-27.0625,40.75,34.96484375
3021,1.064697265625,-0.1357421875,-0.029541015625,6.5,-16.3125,42.0,34.96484375
3022,1.064697265625,-0.1357421875,-0.029541015625,6.5,-16.3125,42.0,34.96484375
3024,1.07275390625,-0.124755859375,-0.00830078125,1.5625,-6.5625,46.0625,34.96484375
3026,1.07275390625,-0.124755859375,-0.00830078125,1.5625,-6.5625,46.0625,34.96484375
3028,1.07275390625,-0.124755859375,-0.00830078125,1.5625,-6.5625,46.0625,34.96484375
3030,1.0791015625,-0.134033203125,0.00634765625,-4.875,1.5625,51.8125,34.96484375
3033,1.0791015625,-0.134033203125,0.00634765625,-4.875,1.5625,51.8125,34.96484375
3034,1.083740234375,-0.15234375,-0.002685546875,-12.375,7.5625,57.5625,34.96484375
3036,1.083740234375,-0.15234375,-0.002685546875,-12.375,7.5625,57.5625,34.96484375
3039,1.10302734375,-0.174072265625,-0.02001953125,-20.3125,11.875,61.9375,34.96484375
3041,1.10302734375,-0.174072265625,-0.02001953125,-20.3125,11.875,61.9375,34.96484375
3043,1.118408203125,-0.194091796875,-0.029541015625,-28.0,14.0,64.375,34.96484375
3045,1.118408203125,-0.194091796875,-0.029541015625,-28.0,14.0,64.375,34.96484375
3047,1.114501953125,-0.211181640625,-0.034423828125,-35.875,14.5625,64.75,34.96484375
3048,1.114501953125,-0.211181640625,-0.034423828125,-35.875,14.5625,64.75,34.96484375
3050,1.114501953125,-0.211181640625,-0.034423828125,-35.875,14.5625,64.75,34.96484375
3053,1.110107421875,-0.218994140625,-0.0390625,-43.9375,14.1875,64.25,34.96484375
3055,1.110107421875,-0.218994140625,-0.0390625,-43.9375,14.1875,64.25,34.96484375
3057,1.117919921875,-0.21484375,-0.0419921875,-50.75,13.5625,63.0,34.96484375
3059,1.117919921875,-0.21484375,-0.0419921875,-50.75,13.5625,63.0,34.96484375
3061,1.12939453125,-0.20166015625,-0.042724609375,-55.875,13.75,61.875,34.96484375
3063,1.12939453125,-0.20166015625,-0.042724609375,-55.875,13.75,61.875,34.96484375
3065,1.135986328125,-0.1865234375,-0.041748046875,-59.125,15.25,61.375,34.96484375
3067,1.135986328125,-0.1865234375,-0.041748046875,-59.125,15.25,61.375,34.96484375
