ventana  acc_x__mean  acc_x__var  acc_x__std  acc_x__skew  acc_x__kurtosis  acc_y__mean  acc_y__var  acc_y__std  acc_y__skew  acc_y__kurtosis  acc_z__mean  acc_z__var  acc_z__std  acc_z__skew  acc_z__kurtosis  gyro_x__mean  gyro_x__var  gyro_x__std  gyro_x__skew  gyro_x__kurtosis  gyro_y__mean  gyro_y__var  gyro_y__std  gyro_y__skew  gyro_y__kurtosis  gyro_z__mean  gyro_z__var  gyro_z__std  gyro_z__skew  gyro_z__kurtosis
1  0,8861767578125  0,0005567986726760864  0,023596581800677963  -0,27464295972958014  -0,2830349328795183  0,019189453125  0,002291157245635986  0,04786603436295915  0,039986710878680366  -0,7701233423735916  -0,18944580078125  0,0032220202147960645  0,0567628418491892  -0,07724509899143224  -1,512260968718711  -4,7975  25,751415625000007  5,0745852663050215  1,1464439288921555  0,2695074426772517  -4,795  140,71344374999995  11,862269755405158  -0,3709993692833661  -1,1666383705190282  -1,455  185,65422500000022  13,625499073428475  -0,23501603504593818  -0,9304793274809029
2  0,93201416015625  0,0029557901084423066  0,05436717859556726  0,6209880951175301  -1,291627681679421  0,068056640625  0,0027991630077362044  0,05290711679666739  -0,6533574806082656  -0,7042148471531879  -0,15353271484375  0,0017594035327434525  0,04194524445921674  -0,7795120379965068  -0,35128524852602316  -4,35625  67,31480468749992  8,204559993534078  0,7700195290504953  -0,3579994986657544  -0,608125  46,386160546875004  6,810738619773556  -0,5038774691373462  -0,9466269381878218  -18,834375  275,90151367187497  16,610283371209384  -0,995299412005132  -0,2258839202552192
3  0,8591455078125  0,0071171901464462265  0,08436344081677932  -0,4525883255662197  -0,5333604700296561  0,13294921875  0,0037722603321075432  0,06141872948952578  0,6769650336759585  -0,5269074813660009  -0,1898095703125  0,0008938591718673707  0,029897477684034997  1,208011607398311  1,4754364056550182  -10,17  20,559381249999998  4,534245389257181  -1,3322039154104768  1,2939443425119563  8,47375  134,92157656250004  11,615574740945883  1,5173124757175136  0,9113146998354278  -6,809375  119,18370117187506  10,917128797072747  0,7391838579407789  -0,0003628954196437384
4  1,08495849609375  0,014160438174009322  0,11899763936317947  0,6898026667211451  -1,0218898065433921  0,14047607421875  0,006213621968030935  0,07882653086385913  -0,23580160513697931  -1,2337428226302463  -0,00918212890625  0,0011016117274761199  0,03319053671569835  -0,23549762695558957  -0,21609470279332488  -3,61125  28,759576562500005  5,362795592086277  -0,5031526044635442  -0,41824363142187204  8,991875  521,3128636718752  22,832276795621482  0,028755328783998443  -1,1545973514750152  -15,79125  284,49337656249975  16,866931450696647  -0,1911588307851473  -0,8789765511417151
5  0,8995263671875  0,005663081908226013  0,07525345113831002  0,1507076288711682  -1,2449165281199894  0,159013671875  0,002412272548675537  0,04911489131287513  0,1088932433637798  -0,6019729107910794  -0,0866845703125  0,011993593955039978  0,10951526813663919  -0,7188938372577741  -0,8980998588482221  14,5125  30,252968749999972  5,500269879742263  -0,19022334054264192  -1,2939124589850244  -44,835  120,74918124999995  10,988593233439845  -0,6813808135286871  -0,6870707781754812  8,689375  155,95355117187498  12,488136417091022  0,9678922210217801  -0,36160562458957246
6  0,86749267578125  0,009034233540296555  0,0950485851567321  -1,3563867256709154  0,9010197251506793  0,07709716796875  0,0016936222255229936  0,041153641704264686  -0,37727994011990723  -1,2218640419908153  -0,31344970703125  0,008520934456586837  0,09230890778568901  -0,7100967531987579  -0,10868328412358075  0,605  18,773193749999997  4,332804374766994  -0,2958507413135068  -1,3491984663815046  -22,550625  39,61872617187499  6,29434080518961  -0,3573331074517808  -1,354339148489262  3,851875  75,87801992187501  8,710799040379419  0,13059420622988205  -0,12100876030526031
7  0,8698876953125  0,014428968214988718  0,12012064025382448  -0,8345504637059131  -0,4469695001895957  0,1350341796875  0,005392946600914002  0,07343668429956517  0,24982881217597064  -1,3368336959045561  -0,4521630859375  0,010055815958976741  0,10027869145026146  -0,0803078116994856  -1,2411771972522532  3,73375  28,54528281250001  5,342778566672964  -0,45768219187570175  -0,512958443912678  -0,670625  117,55912929687489  10,842468782379541  -0,6454372202618365  -1,1908141893547481  -6,983125  456,0744417968746  21,355899461199815  -0,7271948853207195  -1,1051407136713212
8  0,84917236328125  0,0029221383273601536  0,05405680648503159  0,22149666368920287  -0,8720276762485821  0,10493896484375  0,0020306277930736538  0,04506248764852706  -0,23307187449241812  -1,3595122262878698  -0,366611328125  0,0023116833209991462  0,04807996798042971  0,13394900145416302  -1,4565515565709086  -2,471875  59,32166992187496  7,702056213886975  0,0649261877686929  -1,2772685552895557  15,38  52,351771875  7,235452430567144  -0,5499135595246528  -1,037424367611252  15,24625  8,448345312499995  2,9066037419125426  -0,8001975030719651  -0,22881127691515335
9  0,94494384765625  0,0011592441737651828  0,034047675012622854  -0,6373485429006154  1,818010546111175  -0,00023193359375  0,003764603585004806  0,061356365480729105  -0,34152472684437135  -1,5150649941762775  -0,4888916015625  0,007538205981254578  0,086822842508493  0,23070160333771234  -1,484092202715898  11,46  63,20832187500001  7,950366147228693  -1,3144324673180956  0,7693912986411946  15,59375  149,9551171875  12,24561624368084  -2,0476698457337843  2,9583180579802066  9,41125  38,8275140625  6,231172767826294  -1,7030529184077505  2,6334068390507204
10  0,93333740234375  0,002790357321500778  0,05282383289293553  0,03666580170063651  -0,3748373846858781  0,0194873046875  0,002695355868339539  0,05191681681632204  0,47714701748663324  -0,8983112707400722  -0,4460107421875  0,006643689894676209  0,08150883323098307  -0,8832323830146743  0,06472851453274231  -7,205625  34,61510117187498  5,883459966029767  -0,1912283569953009  -0,9160854689176476  -16,384375  77,341357421875  8,794393522118225  0,1712929506595513  -1,0801323894411927  -22,27  86,4430375  9,297474791576475  0,06465921347379487  -1,1848303759522583
11  0,89885498046875  0,007987429255247114  0,08937241887320223  0,843034513991049  -0,7274882641388327  0,09733642578125  0,0009784504115581513  0,03128019200002058  -0,44623820510514506  0,3606179929069091  -0,36700439453125  0,003603349179029465  0,06002790333694377  -0,3813851892357398  -0,35857343965076316  -0,535  31,42150937500001  5,6054892181682066  0,5730583247736984  -0,6522959349892461  0,615  108,39411874999996  10,41124962480489  -0,3111489115923162  -0,682895326102098  -1,699375  119,11255429687493  10,913869813080735  -0,7154817051902909  -0,7502336339671585
12  0,8731982421875  0,0013296994924545291  0,03646504480258497  -0,20732761594782334  0,23854886095308636  0,10443115234375  0,0007811789214611053  0,027949578198268134  -0,3062449409396878  -1,2803265227262222  -0,18519775390625  0,002689234322309495  0,05185782797523914  -0,6885391350555154  -0,9252336122214508  -3,585625  25,252316796875004  5,025168335177938  0,29161443680099164  -1,117093558860247  24,815  11,825853124999997  3,438873816382334  0,15708635257565384  -1,17316333408552  -1,43125  71,55777343750003  8,459182787805217  -0,15416701962223284  -1,2422698010742474
13  0,9559619140625  0,010797078347206121  0,10390899069477155  0,3569330069293691  -0,9414800450168781  0,16361328125  0,0006510874271392823  0,02551641485670121  -0,5743086729262578  -0,7023139545653332  0,07751220703125  0,01842816650271416  0,13575038306654666  -0,12169642976543099  -1,0906211725745416  7,146875  6,493154296874996  2,5481668502817856  -0,4046629910067036  -1,394983577246207  27,10375  151,96611093750005  12,327453546353361  -0,6087529722348632  -0,3944279983351202  -18,790625  52,28581054687501  7,230892790442617  0,7132420658821736  -0,727917080310573
14  0,99501953125  0,00883112192153931  0,09397404919199401  0,8291184271828577  -0,7793104439456204  0,2002001953125  0,0023616802453994726  0,04859712178102189  0,054826654606195326  -1,085312420222918  0,06192626953125  0,013519864529371286  0,11627495228711679  1,034761220922856  -0,4817104721724714  -6,204375  18,582488671875  4,310741081516611  -0,20432543113358678  -0,5641210611963592  -25,5525  98,72513437499994  9,936052253032889  0,3127874349366352  -0,8467914307761704  16,2825  316,92894375  17,802498244628477  0,13306576478003557  -1,4253989542654477
15  0,9036962890625  0,0007079010248184205  0,026606409468743063  0,9109303719998418  -0,21911688686511743  0,14017333984375  0,002118286341428757  0,046024844827861795  -1,6349220572756975  2,9675864152413203  -0,0915185546875  0,007975013279914858  0,08930292985067656  -0,7485522575958776  -0,6535885748042287  -6,868125  59,59741367187499  7,719936118380448  0,17315802487360882  -1,1222420904258037  -3,799375  120,25541367187499  10,966102939142738  0,7362791425485987  -0,0438689021291947  8,88125  147,57105468749995  12,147882724470959  0,44809923281129604  -0,7143246451135115
16  0,937880859375  0,002455435180664062  0,049552347882457215  0,02368264974290021  -1,351431959581283  0,09427978515625  0,002974283760786056  0,054536994423840926  -0,03680418790269532  -1,1539536818804568  -0,22129150390625  0,0019658936202526104  0,044338398936504354  0,2921982196175498  -0,9528557838455929  21,925  346,9573437500003  18,62679102126827  -0,2534709914196821  -0,8330835928259366  33,98  211,24006874999995  14,534100204347014  0,2306462246445599  -0,7597295165366744  -18,3275  603,01665  24,55639733348522  0,5082866781441583  -0,1839293433664082
17  1,09299072265625  0,0021236525714397425  0,0460831050542359  0,2813937110057747  -1,2170060250762778  -0,018837890625  0,002407874727249146  0,04907010013490033  0,9900736591325612  -0,00925812746712884  -0,35720703125  0,0038416520118713386  0,06198106171945862  -0,4979912448414188  -1,3424863585632423  14,935625  277,0669105468748  16,645326988283372  -0,3447098640843553  -1,4432932303567376  12,766875  800,8363949218746  28,299052897965943  -0,1847280431559698  -1,4600816681161088  13,36375  292,7655765624998  17,11039381669808  0,46026827279486404  -1,0883498123439392
18  1,01121337890625  0,0006430009067058564  0,025357462544699862  1,2020853387661958  1,1195518789311025  0,06748291015625  0,0024292911231517792  0,049287839505823126  -0,7916059403984975  -0,8021464445026614  -0,375244140625  0,004409700632095337  0,06640557681471743  0,30217706905969044  -1,3871235159659925  -12,345  16,824334375  4,101747722008266  -0,6149349063567474  -0,9494839100615189  -41,875  86,139921875  9,281159511343397  0,44934125004338316  -0,9721143987768341  -16,566875  15,986348046875005  3,9982931416887135  0,36913061963665533  -0,7975346091427653
19  0,96497802734375  0,006916202753782269  0,0831637105580449  -0,11082921910777574  -0,8047393427655165  0,13783203125  0,0028658000469207762  0,0535331677273144  0,09287268724463944  -1,313802310850441  -0,166884765625  0,010101728820800779  0,10050735704813245  0,06380687309322036  -1,1906221425695955  -10,15375  13,18339218749999  3,6308941305827123  0,14808325742595227  -1,1906489057992053  -19,59  237,32854062499996  15,405471126356375  -0,680956002670973  -0,7560986568644155  -4,58375  109,15439218749998  10,447697937225213  0,5640234209046378  -0,6248602244391921
20  0,71914306640625  0,022266141051053998  0,14921843401890397  -0,20540347717207816  -1,5570024815001753  0,2190185546875  0,003826230168342587  0,06185652890635383  -0,38283611505876947  -0,6751080676244037  -0,0219482421875  0,007391106486320496  0,08597154463146801  1,6876338179175003  2,9636964408510833  -15,694375  37,27710117187502  6,1054976186937475  -0,1525852371912743  -0,5908939531283988  25,023125  1275,2897386718753  35,711199065165474  1,292828175498959  0,3348916175545913  -16,05875  244,3653765625001  15,632190395542786  -0,1258900102395499  -1,055841812190628
21  1,0844384765625  0,08757659676074979  0,29593343298916025  0,57675360706294  -0,7300376191094489  0,2765625  0,012740854024887074  0,11287539158243073  0,13529546890188368  -1,3760804399483841  0,3755712890625  0,030939082169532756  0,17589508853158112  -0,5744395555916071  -1,022446184844843  -10,775625  465,8834449218752  21,584333321228044  -0,8535732707671343  -0,6804086779867893  16,82375  5447,766279687505  73,80898508777577  0,28092225971685886  -1,6251090047988863  -12,89375  184,2683203125  13,574546781108385  -0,4772218380984463  -0,27652605153099064
22  0,961787109375  0,012378873205184942  0,11126038470715865  -0,05637301934125181  -1,57844488194766  0,28265380859375  0,0036002497375011446  0,060002081109751054  -0,4232389833409072  -0,9381666592235613  0,08455810546875  0,019548224657773977  0,13981496578612027  -0,3137653464858096  -1,0507807496603678  1,6125  35,23187499999999  5,935644446898752  0,3133012565988104  -0,7919675858300721  -52,344375  377,45839804687506  19,428288603139368  0,6038407499105966  -1,2541337864318918  13,210625  167,53067617187492  12,943364175200932  0,12969497562430962  -1,427935488806113
23  0,842958984375  0,0025912572383880615  0,05090439311481929  -0,177327332755698  -0,5819527156456408  0,26614013671875  0,0031495224177837387  0,05612060599979065  0,2159882532898259  -1,2380527613491934  -0,25525146484375  0,009054209583997724  0,09515361046222956  -0,37751405946531363  -0,7076443149596883  8,279375  37,04698867187501  6,086623749820175  0,3803967330779325  -1,1149420545287492  6,54625  310,0186421874999  17,60734625625054  -0,33553188077209833  -0,9503527246308354  0,47625  34,68295156249999  5,889223341197036  0,07519596739779853  -1,189778444361711
24  0,942021484375  0,0016887551307678223  0,041094465938466974  2,1319587621825296  4,458320749157223  0,17806640625  0,00253866138458252  0,05038513059011081  -0,5357731673655  -0,9204410631563982  -0,2233056640625  0,013564557099342345  0,11646697857909058  -0,30568199289116826  -0,47797729636926833  26,670625  219,97655117187503  14,831606493292458  0,4097749617736876  -0,8165035186865461  43,07  39,71392812500001  6,301898771402157  -0,429110615464723  -0,7388847718643752  3,615  21,290446874999997  4,614157222613898  0,17417167063137312  -1,1179315312043399
25  1,10362060546875  0,001669507330656052  0,04085960512114688  -0,7195278410445353  -0,28058403972003276  0,01878173828125  0,0034436789214611074  0,05868286735889026  0,613488344360958  -0,45611655939114026  -0,2830517578125  0,018127791619300844  0,13463948759298233  0,4781682040289643  -1,2205806759944713  23,59625  464,60112656250016  21,55460801226736  0,25113441579123963  -1,0291299217356211  3,013125  348,911819921875  18,679181457490984  -0,16126728705548068  -1,257495901186252  19,170625  204,64944179687507  14,30557380173459  -0,2768565209965156  -0,6528574142961454
26  0,9331591796875  0,013471086716651915  0,11606501073386379  -1,0227996293574269  -0,30885074569818505  0,0760107421875  0,0070105436086654645  0,08372898905794494  0,12317217771468214  -1,4085966407171557  -0,37310302734375  0,016716453856229777  0,12929212604110807  -0,7086592591345836  -0,6022023190218082  -15,5825  108,70920937499999  10,426370863104765  0,18201334515765402  -1,282147010083977  -52,566875  256,3200980468753  16,009999939002974  -0,42541770775154597  -0,8867043112799835  -16,271875  258,77643554687506  16,08652963031104  0,014312699639383922  -0,8459051088518685
27  1,036142578125  0,008262395763397214  0,09089772144227387  -0,8552948653178544  -0,3433196213003038  0,19257568359375  0,005366945618391037  0,0732594404728226  -0,9792296356575744  -0,10575234672626799  -0,29974365234375  0,004828529804944992  0,06948762339399005  0,3334573974380887  -0,6019053207897378  -17,04375  61,8367578125  7,863635152555083  0,7041411231850542  -1,129551552923262  -24,19875  248,33838906250006  15,75875594907479  0,2149328911260554  -0,6990302479720425  -0,074375  215,81263242187498  14,69056269929355  -0,42593977416433043  -1,172281179937042
28  0,78194091796875  0,009491833513975138  0,09742604125168557  -0,025065860240618278  -0,9189335770861247  0,16779052734375  0,0021511350333690647  0,04638033024213028  0,3725805865061627  -0,9332443501994088  -0,10774658203125  0,005767723387479783  0,07594552908157125  0,044326491924277636  -0,9552891572982594  -7,763125  42,668616796875014  6,532121921464342  -0,7983926640513063  -0,45598600176166304  5,926875  107,89797304687494  10,387394911472025  -0,2995309978929146  -1,437009817942928  0,149375  280,65749179687487  16,75283533605207  -0,17274216358764116  -1,2699842427129857
29  1,01375  0,09062520012855531  0,30104019686506206  -0,13565852645693943  -1,35428021513924  0,21831298828125  0,014604876393079749  0,12085063670945118  -0,30679542958224193  -1,4134980927614882  0,17115966796875  0,04161939651370048  0,20400832461863042  -0,14551507651405365  -1,0853942071228226  -0,123125  170,01581679687504  13,039011342769628  0,29623045677773463  -1,2921677012788133  31,406875  2801,7501949218754  52,93156142531482  -0,10308051633719596  -1,38832885827268  -9,2575  259,3529124999997  16,104437664817723  0,49612038746667486  -1,1461454011874228
30  0,915205078125  0,0010624359607696527  0,03259502969425941  -0,5321569352351809  -0,958126402793992  0,27566162109375  0,0009959899127483377  0,031559307862314374  -0,19858832993902803  -1,0516588135585527  -0,02394775390625  0,0011857296168804171  0,03443442488093009  -0,6567049251200707  0,18194685909818054  -1,429375  26,354816796874992  5,13369426406316  -1,239339090492719  1,0256599145687204  -35,52375  63,03685781249998  7,939575417646713  1,2863097696163852  0,43554020445003694  7,060625  189,69745742187493  13,773070007150727  -0,12602984738777573  -0,9632713690647154
31  0,82058837890625  0,0067849965751171125  0,08237109065149685  -0,19787033373117585  -0,5299473576654607  0,1503271484375  0,005793075108528137  0,07611225334023515  -1,0135266032283612  -0,37719564309413034  -0,16384521484375  0,007100151652097709  0,08426239761659829  -0,6415851408011386  -0,31818913598046983  -4,665  610,8762906250001  24,71591168913257  -0,3608127842710067  -0,5656992269286771  26,63875  443,5525453125  21,0606871994363  -0,23645200280579012  -1,215358892183823  22,343125  1645,3859761718757  40,56335755545731  -0,8801748783146155  -0,42300715028781033
32  1,11497802734375  0,005146946161985398  0,0717422202192363  0,16301584676248027  -1,15768137946428  0,089208984375  0,0032136583328247043  0,05668913769695835  0,22818793720765346  -1,4759092353915544  -0,1408935546875  0,005654787421226504  0,07519832060110454  -0,2683716482612691  -0,9906862123626987  11,36875  89,75792968750002  9,474066164403752  -0,23862472505762422  -0,4835283168209119  7,11375  526,4511234375001  22,944522732833214  0,4386946917401695  -1,5777821636223586  -4,72375  125,42048281249996  11,199128663092498  -0,6583959989808627  1,9991353618691647
33  0,897744140625  0,004799066448211671  0,06927529464543382  -0,13650608186245428  -1,5095993839758302  0,08370849609375  0,0014967115581035605  0,038687356566500644  0,4188215029822283  -0,9783490052909736  -0,27162841796875  0,0035885168254375472  0,05990423044691875  -0,3482258005652154  -1,3654298385343209  17,9225  96,59915000000002  9,828486658687593  -1,093750792889265  -0,27233650313839197  5,90125  257,46993593750005  16,045869746994086  0,9271006285738325  -0,8129460387813605  8,4  277,08671875  16,64592198557953  1,1209595791037974  -0,44167173088122746
34  1,0854296875  0,01744342050552367  0,13207354203444258  -0,3886055937622729  -1,1939307212501964  -0,00891357421875  0,0030698651015758516  0,05540636336717879  0,08196124398343596  -1,6157420414492303  -0,35740234375  0,007909570550918572  0,08893576643240093  -0,16339692730931887  -1,4146747181170287  -4,7325  473,990396875  21,771320512890348  -0,9410440968846243  -0,5242730704513052  -1,890625  1258,022138671875  35,468607791565134  -0,5588970034967446  -1,0547601929136132  8,831875  254,1914605468749  15,943382970589237  0,3494325418409872  -1,3978823671876315
35  0,98699462890625  0,004086866205930711  0,06392860240870835  -0,5487710005553091  -0,08331060260511913  0,06107666015625  0,005167058771848677  0,07188225630744124  -0,499725619926871  -1,495563793103612  -0,38529541015625  0,005284336870908738  0,07269344448372726  0,07892475845874827  -1,0326301980734556  -15,641875  271,567957421875  16,479319082470457  -0,800596623838591  -0,27440424341001446  -67,07375  364,0969828125001  19,081325499359316  0,35083300926732175  -0,7301317114050319  -4,94  308,46319687499994  17,563120362708897  0,5984188836199177  -0,4828216279017328
36  0,862001953125  0,00834422721862793  0,091346741696833  0,5469993053052625  -1,0097295487780733  -0,01324462890625  0,01450305625796318  0,12042863553973855  -0,5234929852091782  -0,7636344549690541  -0,24039306640625  0,025024108141660704  0,1581901012758406  0,5587758298047413  -0,5567043160876199  -10,145  272,4263187500001  16,50534212762644  -0,10443702555843556  -1,2837453951967852  32,48875  2598,324951562501  50,973767288307236  0,503773103865927  -1,070213950603994  32,19625  1926,4510171875015  43,89135469756546  0,3649641775945607  -0,9894554293657061
37  0,82263916015625  0,001991639679670333  0,04462779044127474  -0,4678918207868139  -0,22940714680645913  0,1162255859375  0,005576010727882382  0,07467269064311519  -0,028690634738672612  -1,4804123521891555  -0,0273388671875  0,008984850621223445  0,09478845194022026  0,474756701143245  -0,4303711541662816  14,979375  27,76773867187501  5,2695102876714275  0,3435538232465268  -0,41376669541239375  7,615  197,58552500000013  14,056511836156227  0,23064942082560544  -1,363419607504411  -50,179375  167,519191796875  12,942920528106281  -0,8700440947114378  -0,7049564437791322
38  1,04985595703125  0,03999010121226312  0,1999752514994371  0,3507193548013005  -1,2186124916776016  0,12571533203125  0,02510817558169363  0,15845559498387438  0,031259055832399074  -1,397113742804501  0,1659423828125  0,013449873328208914  0,11597358892527607  0,6174311789864251  -1,12312899654434  10,971875  1006,9492480468741  31,73246363027734  -0,1488999628272913  -1,6063357895072625  18,656875  2246,2542574218746  47,39466486242808  -0,08375218992069457  -1,6192419884374947  -19,9175  704,8878031249997  26,549723221250343  -0,011028844072912117  -1,601336748771371
39  0,835361328125  0,007143469476699825  0,08451904801108343  0,13547042136032442  -1,2205862184160008  0,22376708984375  0,006398971527814864  0,07999357179058117  0,06284733013089662  -0,788300228608787  0,009736328125  0,003163254594802856  0,056242818161991635  -0,5117371976197869  -0,7423336460497487  -9,006875  94,16944492187497  9,704094235005911  -0,5099189686457972  -1,347705004506966  -22,19125  575,6125640624999  23,991927060211314  0,9323977516773746  -0,04012481689894187  9,50375  391,0949078125001  19,77611963486518  0,44018387368237705  -0,19278972107733816
40  0,99435791015625  0,00210471140742302  0,04587713381874482  -2,498398713839246  7,121382881729547  0,17676025390625  0,005849948519468306  0,07648495616438769  0,11956826401759198  -1,27879907642931  -0,03764404296875  0,0031759353816509265  0,0563554379066557  0,36577176954628454  -1,1169197394652697  -3,66  160,94135312499998  12,68626631933131  0,014138392548866188  -0,3016409010678611  13,125625  89,99355429687486  9,486493256039076  1,2741269114630538  1,5815036612079645  15,864375  263,61000429687516  16,23607108560674  0,6584039416395894  -0,22944618289910146
41  0,99548583984375  0,0025642913520336156  0,05063883245132746  -0,2022951583872716  -1,006402717356655  0,13552490234375  0,004137192839384081  0,06432101397975688  0,6812068606496107  -0,7131986703098012  -0,1694287109375  0,009082229113578798  0,09530072986907707  -0,08810883193842568  -1,3738380027024035  6,0075  154,60252187499998  12,433926245357899  0,0703558436801192  -1,0825579556351994  -12,951875  328,89795742187505  18,135544034350747  -0,4061323810549811  -1,1274153842234953  -16,709375  364,71315429687485  19,097464603891137  -0,33046664248849544  -0,9833456376430241
42  0,9708447265625  0,001113922810554504  0,03337548217710875  -0,16398085996729805  -1,005933029170054  0,08278564453125  0,0014040507018566128  0,03747066455050688  0,02894966877446955  -0,6417948209467319  -0,3207861328125  0,0027433345556259116  0,052376851333636995  -0,5334554771528922  -1,0148509485352166  27,169375  51,523616796875004  7,177995318811165  -0,18951795801973315  -0,6198975752382956  2,83125  109,17777343750004  10,4488168439063  -0,3745699895684422  -0,710869450129803  -8,12875  49,035532812500016  7,002537598078287  -0,25032816115387424  -0,6917566673383222
43  0,954443359375  0,004594148397445679  0,06778014751714309  -0,4160826723012165  -1,1486243766213506  0,0715087890625  0,0030929559469222985  0,05561435018879838  -0,10664620575012267  -0,7548239314307845  -0,40211181640625  0,0021598248183727266  0,04647391546203877  0,6252001667690822  -0,7100793587062477  -2,625  153,718515625  12,39832713010106  0,8238111436724231  -0,4910637446254049  4,4225  81,85985312499999  9,047643512263289  -0,04530383142234881  -1,1017846072886333  0,1075  229,38727187499993  15,145536368019455  0,09389035729316383  -0,6762012180401573
44  0,9320703125  0,0036001302242279053  0,06000108519208553  -0,4956771755519875  -0,952084332265489  0,12916748046875  0,009370171135663984  0,09679964429513149  0,6457209558867484  -1,0642476927510374  -0,32705810546875  0,00394119817614555  0,06277896284700434  0,06557067836590719  -0,9267965886721159  -28,07875  86,83637656249998  9,318603788256048  -0,3603571815982117  -1,5279855066144146  -14,544375  91,730804296875  9,577619970372336  0,903682543858618  0,2860947123627122  -14,351875  76,83528554687497  8,765573885768973  -0,13849830773976593  -1,2948755887612537
45  1,0772705078125  0,0019436007738113403  0,04408628782071972  -1,3308586878873245  1,5815748143325488  0,27599609375  0,0011593502521514893  0,0340492327689111  -0,8519742966000324  1,849776545568842  -0,1006982421875  0,0010768811941146857  0,03281586802317875  -0,3522501126053596  -1,1615763903789451  -4,49875  161,39132656249998  12,703988608405629  -0,6587665504983162  -0,9020055005413603  1,969375  61,05066367187503  7,813492411967585  0,3493186761456488  -1,2498449239463354  10,13125  48,83035156250003  6,987871747714037  -0,23449230307904098  -0,8640242775905449
46  0,864833984375  0,008326216363906862  0,09124810334416196  -0,49612860928234115  -0,6126470938530995  0,15723388671875  0,0018167131602764128  0,0426229182515277  -0,8127322255196374  1,9065961951537167  -0,0747705078125  0,0018501026868820195  0,043012820029405416  0,02331347631338167  -1,3054346047274417  12,49875  9,852732812499994  3,1389063083341613  -0,5057648164604828  1,049602050202676  1,17  44,395475  6,662992946116632  0,4513548816779327  -0,8316403194633306  -11,98  72,76124062500001  8,53001996627206  0,4268364658139349  -0,05837983026529736
47  0,9296240234375  0,1264892192125321  0,355653228879666  0,3983708979745175  -1,3048376045097243  0,32336669921875  0,014701477879285803  0,12124965104809912  -0,747783911555538  0,49022560286965433  0,2059375  0,04775883970260621  0,21853795940890042  0,1131950571624201  -1,365423271838767  4,02  339,55881874999983  18,427121824907974  -0,6142574410845805  -0,8656313502037558  35,639375  2072,4182699218745  45,52382090644276  0,2069103052370529  -1,2174214792533165  -41,648125  2067,549738671875  45,470317116464834  0,4686843439851767  -1,1330201212488231
48  0,90085693359375  0,003767217510938644  0,061377662964132516  -0,8136789510629591  -0,612640225211782  0,425546875  0,006263663673400882  0,07914331098330978  0,4159369178536924  -1,3756036503700426  0,0417431640625  0,0017822921037673955  0,042217201515109874  0,06118910172331618  -0,69100728947826  -11,6625  91,70382812500006  9,57621157478259  -0,5689485800225673  -1,0075078153643011  -31,583125  34,87148867187499  5,905208605280172  -0,20917245779416901  -1,3761114110676458  5,031875  129,4528511718751  11,37773488757209  0,6868109373663669  -0,6689394370327744
49  0,8962353515625  0,00467831609249115  0,06839821702713565  -0,2303243290017894  -0,5739525966238967  0,362080078125  0,003331383085250854  0,05771813480398387  -0,10728228925232783  -0,0717809545662198  -0,03308349609375  0,009502380484342574  0,09748015431021113  -0,004441604545837752  -1,048968019610585  -0,519375  85,32739804687498  9,237283044644403  0,6224110309278348  -0,4540284857982857  -34,399375  290,17100742187506  17,03440657674564  0,6158211808110635  -0,7090291128013666  14,439375  177,674957421875  13,329477012316538  -0,44717899498839164  -0,21582766056377478
50  0,90657470703125  0,0014748252093791958  0,03840345309186657  0,7652686048868094  0,5333824846427127  0,19455078125  0,004094806051254273  0,06399067159558706  -0,43198068417021596  -0,7365923821329714  -0,17515869140625  0,0029136244952678676  0,05397800010437463  0,9803710529066653  1,1126052407045508  9,56625  54,344985937500006  7,3719051769200075  0,22349314502841702  -1,0148913280743634  -3,194375  119,091163671875  10,912889794727837  -0,24450927792242885  -0,7360230560857066  31,834375  138,85190429687498  11,783543791953038  0,11731080491104194  -0,6776385106141296
51  0,90128173828125  0,012207801789045332  0,11048892156703011  0,04580752548652521  -1,5983742044797347  0,1404443359375  0,0012720747232437138  0,03566615655272816  0,1455594177080801  -0,9067685031772124  -0,2782470703125  0,004928788542747498  0,07020533129860936  -0,6726873994933957  -0,5172086777502796  17,36125  102,25199843749999  10,11197302397015  -0,34774672521837835  -1,237668982313427  13,879375  216,67283242187503  14,719810882680356  -0,5735620999021364  -1,3834409315880851  -14,416875  86,17219179687501  9,282897812476177  -0,33893227731479897  -1,5268463975475406
52  1,03341552734375  0,001923100537061691  0,04385317020537616  -0,46668055150704474  -1,1013466878236526  0,14482177734375  0,0010665019690990452  0,0326573417335068  0,006816063343771417  -1,0136220330451258  -0,22493408203125  0,0022013676822185526  0,04691873487444597  0,08005788069832184  -1,3903974719337886  0,89625  92,9754859375  9,642379682293162  0,3333293433462679  -1,2813744906258822  16,570625  45,78309804687499  6,766320864906939  0,35636009600064955  -1,0103288323458317  17,524375  165,997101171875  12,883986229885338  -0,5013150348290468  -0,7293701883631409
53  1,01902099609375  0,0029664195716381046  0,054464847118468114  0,13151271732984077  -1,2313224095157405  0,08824951171875  0,0009394102752208715  0,030649800573916815  -0,6325647714817056  -0,9426469197629261  -0,33578125  0,0010410839557647704  0,032265832637091055  0,0985382314740668  -1,2352355127940073  2,22375  86,3737640625  9,29374865500999  -0,18142249306850905  -1,7704937548114934  -7,93375  323,3757671875  17,98265183968983  -0,25150857150854405  -1,7221360398587564  -3,4  180,4575000000001  13,43344706320757  1,1759077628964427  -0,08380410081191014
54  0,919052734375  0,007256040954589847  0,08518239815002773  0,7089227093108851  -1,0860859018628817  0,11305419921875  0,001090139454603195  0,03301725994995943  0,1830460640054646  -1,5853574906858505  -0,31388671875  0,0029496692180633528  0,054310857276085714  0,5154233032054277  -1,1525575038726381  -14,84875  6,670795312499998  2,5827882825543402  0,6597002108430413  -0,556307046741098  -40,523125  66,10856679687502  8,130717483523519  -0,40725820061918966  -1,0523525443131123  -7,039375  13,414582421874995  3,6625923089903134  -0,28528326610720517  -1,0145275853194635
55  0,905009765625  0,004918769216537477  0,07013393769451047  0,27850989441397933  -0,9047131361243514  0,2027978515625  0,0032429256677627568  0,0569466914558059  -0,8737831093707712  -0,2601046473272488  -0,28302734375  0,005539749956130979  0,0744294965462684  0,604768805939727  -0,47267096887180804  -10,955625  139,86306992187494  11,826371798733327  -0,3523099424934961  -1,2196078466979456  -12,4475  78,07099374999999  8,83577918182658  0,10942533325677123  -0,7158258412690461  1,489375  174,54836367187502  13,21167527877805  -0,48093728649715267  -0,7484010326816977
56  0,95962158203125  0,00098374235033989  0,031364667228266425  -0,29024983286273753  -1,1118638546536013  0,17249267578125  0,0009962135016918193  0,03156285002486023  0,2281791520386226  -0,04044868419215719  -0,25655517578125  0,0006826727092266084  0,02612800622371727  0,11499837131274632  -0,9558075903204273  -2,375625  21,909257421874994  4,680732573206356  0,4093678763722775  -1,068276173400653  -0,568125  16,216648046875008  4,026989948693069  -0,5718397539489172  0,1894519160010475  2,62875  69,76998593750008  8,35284298532542  -0,6027652927795781  -0,5225486451856871
57  0,88404541015625  0,0019306938350200655  0,04393966129842224  0,1702252578284956  -1,4718067941353643  0,2030126953125  0,0057287602663040164  0,07568857421238702  -0,17864842709219855  -1,4865281385325964  -0,2376171875  0,004811413383483886  0,06936435239720679  0,4951003748642  -0,43042433295450966  3,351875  87,44551992187502  9,351230930838732  0,6132704820667622  -0,8530294871210411  12,346875  41,51385742187498  6,4431248181200855  -0,08337605264310119  -1,575604575869662  -15,548125  172,40905117187503  13,130462717355966  -0,21077732890051556  -1,2871018548696
58  0,78317138671875  0,033145756310224525  0,1820597602717979  0,8990700058358359  -0,03497081710978067  0,297001953125  0,0030243450164794917  0,054994045282007506  -0,14205172651666012  -1,1921247078782864  -0,06247314453125  0,028169371956586843  0,16783733779045365  1,0363140395873032  0,11673718283658951  17,65625  7,4575390625  2,730849512972108  0,17646744098069972  -1,1225497218518459  41,429375  873,8531761718751  29,56100769885687  0,397835660286097  -1,2907027673625802  -28,795625  53,213348046874984  7,294747976926618  0,7248839803989928  0,19440320067579897
59  1,05793701171875  0,054299534195661546  0,23302260447360368  0,5397017070377201  -1,3714484755578946  0,30127685546875  0,016114329642057414  0,12694222954579543  -0,2598006638592828  -1,6177838061620098  0,0509033203125  0,030511102080345152  0,17467427423735057  0,6680994324318158  -1,0948359428147214  -2,024375  136,91663242187494  11,701138082335193  0,23426266958740055  -1,0385848927621997  -5,53  729,2467562500001  27,00456917356765  1,3148399243932143  1,1433716493401196  2,66125  48,689389062500005  6,977778232539352  -0,41302818781036027  -1,3158236781825248
60  0,95267333984375  0,002855201214551926  0,05343408289240048  -0,735288803472289  -0,7900903291721217  0,26410400390625  0,0023562370002269736  0,04854108569270957  0,3985185596935693  -0,47356465424608984  -0,0248046875  0,004271031618118286  0,06535313013252148  -0,8084357989232552  -0,5487746842054015  9,169375  11,170726171875001  3,3422636299183526  -0,809947123763128  -0,5166713219893659  -31,92875  84,2803140625  9,18043103903624  0,3604662640527659  0,2463019717332049  11,695  85,52041249999998  9,247724720167657  0,45990412530226876  -0,6763459989968235
61  0,9292138671875  0,0006364712953567506  0,025228382733674202  -0,016488804330679514  -1,1802010890704928  0,18099365234375  0,002951617687940597  0,05432879243955821  0,32463128564951826  -1,0224202153096127  -0,12051513671875  0,0017532880961894993  0,04187228314994896  0,058044762782201664  -1,6118723192976447  4,155  21,282146874999995  4,613257729089065  -0,3686723814935121  -0,3431540695348496  -22,47625  34,483889062500005  5,8722984480099445  -0,20853180381836525  -1,255629361736873  22,984375  166,715263671875  12,911826504095963  -0,52716286555005  -0,7597085098915439
62  0,90196533203125  0,0022737936675548552  0,04768431259392186  0,07811600142031613  -1,0785914853694556  0,16445068359375  0,003683589810132978  0,060692584473994664  -0,14216066932453345  -0,7483749546075114  -0,322861328125  0,00524447121620178  0,07241872144826765  -0,2610876171307399  -1,0235191996045154  -0,80875  35,204204687499995  5,933313129062042  -0,20433264035834944  -0,9139678811328182  -15,06625  91,24865781249999  9,55241633370845  0,663875252451048  -0,6671950091827674  2,490625  224,5658105468749  14,98552002924406  -0,49843478430052635  -0,7657119950483975
63  0,893662109375  0,00312876501083374  0,055935364581217666  -0,2755902367752591  -1,4063371211703972  0,11829833984375  0,0006157688796520235  0,02481469080307114  -0,2157962792434277  0,40870498093494856  -0,31581787109375  0,005409474486112592  0,07354912974408734  -0,2630282198139952  -0,976942356861553  16,58  30,743131249999987  5,5446488842847375  -0,4925788045194845  0,4143812554386934  20,39875  204,28998281249994  14,293004681049396  -0,0729245013636235  -0,8722729365583146  -22,089375  93,09158242187497  9,6483979199593  0,5331736659799173  -0,3616450728312959
64  0,98690185546875  0,0036955885589122772  0,06079135266559116  0,29607058997837643  -0,3726173546584528  0,116875  0,004941618537902833  0,07029664670453942  -0,059921289700740774  -0,6824176103151944  -0,33642578125  0,006265968084335327  0,07915786811388573  1,0452693517406273  -0,07224125600816889  22,788125  67,50788242187495  8,216318057492355  0,2445105057727553  -1,2444093555676676  39,665625  68,35487304687503  8,26770059005979  -1,265128203352308  1,9763458712935575  -4,899375  215,173038671875  14,668777681588708  -0,02663356043661578  -1,2049908424728797
65  0,93802490234375  0,0065822486579418145  0,0811310585284194  -0,5565964194474299  -1,14831507577438  0,1476513671875  0,003439887261390685  0,05865055209791878  -0,1106987550807454  -1,2428921204259065  -0,26918212890625  0,008451655215024953  0,09193288429623511  -0,1296932510957694  -1,4944242059208752  1,34375  17,7357421875  4,211382455619532  -0,4357707554285145  -1,1270674230367284  3,274375  113,14233554687506  10,636838606788912  0,2877001733040532  -1,0424431630195339  -2,6375  26,246171875000023  5,123101782611783  -0,054039326038263835  -1,1063220592889835
66  1,036044921875  0,0037457400798797612  0,06120245158390113  0,9069421374146215  -0,5523311608903723  0,11889404296875  0,0008757001101970668  0,029592230571504185  0,06584564092357936  -0,3651080254020522  -0,24330810546875  0,006143326872587207  0,07837937785276945  0,670573295318804  -0,5885129539613332  -17,464375  55,38908242187498  7,442384189349202  -0,08312775300687797  -1,1103964588652715  -26,704375  124,99475429687494  11,180105290062118  -1,1492165855889078  1,1513930672027497  0,37375  39,57538906250001  6,290897317752056  -1,7599636523375868  3,2249883281494647
67  0,852685546875  0,006644679307937623  0,08151490236722131  0,2859053016568488  -0,8215212500526379  0,1785693359375  0,0005138137102127076  0,02266745928004962  -1,1930993472997418  0,9957491278197037  -0,3381103515625  0,005509707331657406  0,07422740283518889  0,3244206713146457  -1,2151414141918662  -26,16  75,43549374999999  8,685360887723665  1,5144529473466024  0,8756575028424387  -36,44125  171,90350156250005  13,111197564009935  -0,18672434032336824  -1,115329368605875  0,3975  165,20066562499997  12,853041104151187  -1,3806077823696676  0,7207259995648703
68  0,90372802734375  0,0009682346045970916  0,03111646838246737  0,5800068985068836  -0,5534432267635534  0,26572021484375  0,0011070893943309781  0,03327295289467074  0,717451423257335  -0,6902639252141003  -0,33315185546875  0,003394659870862961  0,05826370972451858  -0,21512932130265033  -1,4330133305315764  -11,965625  85,68698242187506  9,256726333962513  0,1810979678533722  -0,5476304830428038  5,780625  143,88011679687494  11,99500382646354  -0,1449088060059673  -0,47575942048787656  2,80875  62,4489703125  7,902466090563123  -0,08649019426443033  -0,7414782377263407
69  0,92641845703125  0,001598137491941451  0,039976711870055685  0,07419413601471785  -0,5379167990253584  0,2284716796875  0,001054785704612732  0,032477464565645084  0,2956567086872505  -1,0215145891595456  -0,11725830078125  0,006208713406324387  0,07879538949916033  0,01590892865133591  -1,5222431611109193  14,889375  294,633113671875  17,164880240534014  0,46212889125716966  -1,4318286507069942  23,664375  64,65208242187498  8,04065186548174  0,5634698263840536  -0,655862513087385  -6,611875  428,19869492187513  20,692962449148627  0,36951459600923287  -0,7565725826807772
70  0,82675537109375  0,005013908022642132  0,07080895439591049  -0,19050081658358795  -1,4393828295859041  0,27190673828125  0,013712911432981485  0,11710214102646238  0,5625833542753003  -1,086073508771695  -0,0191455078125  0,00383568785190582  0,06193293027062275  0,4069911652326355  0,4935454150542933  14,834375  296,8469042968749  17,229245610208096  0,7310619662539722  -0,81453063695922  29,73375  335,2603609375001  18,31011635510545  0,8739968953521018  -0,3953978227777011  -36,339375  71,79955117187497  8,473461581424381  0,0728872439073742  -0,08147166345111234
71  1,0479150390625  0,023765968823432928  0,1541621510729301  0,4726355158425037  -1,332481600463982  0,38227294921875  0,004503636711835862  0,06710914030022931  -0,21136700344431153  -1,284568831477172  0,137607421875  0,009012107276916502  0,09493211931120311  -0,022532154443139742  -1,5651136745935088  -1,4125  297,493671875  17,248004866505575  0,3690545616352325  -1,3708349801798625  9,475  961,7828125000015  31,01262343788415  0,873378277718344  -0,836811280738754  8,0275  174,96518125  13,227440464806484  -1,3276504896863368  0,618112480019521
72  0,92026611328125  0,001426056736707688  0,03776316640203372  0,2624377201654894  -0,8952548517442276  0,30936279296875  0,0017456714808940883  0,04178123359708385  0,8724277732804822  1,1549583964248455  0,07238037109375  0,0036201279819011688  0,060167499382151234  0,8682473825699961  -0,36242541281558216  -5,653125  43,73791992187501  6,613465046545193  -2,2435149738561915  5,462391589646616  -13,50875  5,266564062499999  2,294899575689533  -0,2664938360334304  -1,3564439656004603  17,146875  333,141513671875  18,252164629760355  2,1996862449626633  4,247593546295704
73  0,95633056640625  0,00507902938723564  0,0712673093868124  -0,6369335767700163  -1,0070478122324709  0,15640869140625  0,019307965487241747  0,13895310535299937  0,5958672323421937  -0,25735112926948966  -0,01116943359375  0,010963935106992721  0,1047088110284551  -0,7739724375562131  -0,3261929334368725  -26,480625  596,5741949218747  24,424868370615116  -0,1627605245898726  -1,045800934043558  -15,348125  235,49876992187507  15,345969175059459  0,2658477129987002  -0,8911583473535205  30,16625  1604,054626562499  40,05065076328347  0,08230382508929565  -0,8835673559480366
74  0,9623583984375  0,0028066854238510135  0,052978159876037725  -0,07342022003892212  -0,4774188201717209  0,11223876953125  0,0016827593505382532  0,041021449883423836  -0,33911184525404703  -1,2616954306360497  -0,1156298828125  0,006671821808814999  0,08168122066188163  0,5550128824305679  -0,5843160855417597  8,315  100,79421250000003  10,039632089872617  -0,7805607241778195  -0,35751439386147243  -14,54125  92,75353281249988  9,630863554868789  -0,12205489613976149  -0,7874151915489311  -3,278125  286,16221679687516  16,916329885553637  0,538313831317556  -0,5299773845446643
75  0,99843017578125  0,02327383071780205  0,15255763080817047  -0,1759085507571156  -1,6652553466071072  0,11197998046875  0,009424752062559135  0,09708116224355338  -0,5988829675304725  -1,2798920066892865  -0,2199853515625  0,03897330024242403  0,19741656526853066  -0,03267724625837428  -1,7270860256276381  18,600625  141,344913671875  11,888856701629262  -0,019435616109003625  -1,3605682264024015  23,12625  777,7927328125  27,88893567012732  0,41897512878301  -1,1777704363661363  4,680625  166,85475742187498  12,9172271568582  -0,6067806981453165  -0,5638640447526666
76  0,892783203125  0,007632108592987064  0,08736194018556974  0,2748087393000561  -0,9529703884960092  0,13464599609375  0,005428817862272264  0,0736805120929019  -0,263994959099953  -1,186674858413012  -0,2228515625  0,012400128841400142  0,11135586577006235  -0,08782451847163636  -1,4005644767188747  8,22125  370,9889390624999  19,261073154487004  -0,1896488003685379  -0,6801437997229636  -19,52875  173,11597031249997  13,157354229194407  0,9269667218229904  -0,08285694784535735  1,7475  949,4131187500002  30,812548072984814  0,7703458829115568  -0,9319909620895759
77  1,0155859375  0,0018513175487518308  0,043026939802312585  -0,038107788397297844  -1,5904602265686456  0,0670263671875  0,0011493675947189328  0,03390232432620119  -0,10850559651328746  -1,5230997772281962  -0,250849609375  0,002735483026504516  0,0523018453451168  -0,32948041526270205  -0,9722774596351038  -0,48875  22,935967187500005  4,789150988171077  1,1585025820741914  0,6856532561622348  -7,38875  33,473170312499995  5,7856002551593555  0,6491866152885593  0,8601972846857624  1,445  103,01931874999991  10,149843286967533  0,9154279764333825  0,5201727588279206
78  0,90926513671875  0,0023561184108257275  0,0485398641409896  0,3759553671317729  -1,6283588152362076  0,08434326171875  0,002309498137235641  0,04805723813574435  -0,47506946257942434  -1,1222017859597126  -0,31448486328125  0,0025570114314556113  0,05056690055219532  0,41998736426573063  -1,4027364215203053  -24,225  100,70515625000009  10,035195875019086  -0,07385092711446949  -1,3559565117975036  -25,2775  46,579165625  6,8248930852431675  0,9894274359848787  -0,5440076414177182  -8,690625  66,72815429687499  8,168730274459733  0,07138692641056607  -1,1461776424422934
79  0,9754541015625  0,0030538468599319475  0,0552616219444557  0,03760149919247337  -1,1819166731556314  0,161611328125  0,0004483961105346678  0,021175365652915366  0,9063572128582397  0,9371478061368279  -0,31236083984375  0,0022707298457622523  0,047652175666618335  -0,7370767186572746  -0,19824045823374492  -18,891875  124,19780117187506  11,144406721395045  0,2167508211896917  -1,2633382054091635  -7,4675  54,123787500000006  7,356887079465064  0,24583453386921558  -1,3317091805979866  12,995625  39,15611367187499  6,2574846121964205  0,8465413034776657  0,7018844669609732
80  0,94250732421875  0,0019328206717967992  0,04396385642544111  0,8016281792352056  -0,35204773819616086  0,10191162109375  0,0018544319331645956  0,043063115692720096  0,18745835239631756  -0,7676527166105096  -0,2243798828125  0,005204902672767642  0,07214501141983166  -1,3040365675406924  0,8186627140987892  1,021875  77,31331054687503  8,792798789172593  -0,5866398225375644  -0,07389139106176446  -3,85625  113,3159765625001  10,644997724870592  -0,09071884208520485  -1,2105655709847205  10,404375  196,822926171875  14,029359435550683  0,41274080196822427  -0,46961296273338693
81  0,86165283203125  0,0013711918056011202  0,03702960714888993  -0,5409339837279493  -0,18735520174921172  0,05145751953125  0,0007398400962352752  0,027200001769030736  -0,053867547796718075  -0,8393723838590001  -0,137646484375  0,0023691594600677504  0,04867401216324529  -0,05028881148258984  -0,8231600257871876  -3,42375  219,36926406250004  14,811119608675774  -1,4623484267444187  1,5792995000679246  1,548125  96,02889492187495  9,799433398001895  -0,46674928449028946  -1,3885520449187971  -16,270625  532,2175824218754  23,0698414043503  -0,5880845106608926  -0,9966311824406979
82  0,98147705078125  0,041018893307447415  0,2025312156371146  -0,3245107772270059  -1,1041977454412426  0,15383056640625  0,07823156368136408  0,2796990591356433  -0,05099442866459613  -1,490004837311825  0,04368896484375  0,04153041884303096  0,20379013431231394  -0,4392833770243999  -0,9324897026616683  -5,64375  696,1430859374989  26,38452360641554  -0,4917188801744874  -0,8013567688132532  28,029375  1044,4821449218757  32,31844898694669  0,3721646295495949  -1,2841120013710832  7,035  2581,0780718750007  50,80431154808616  0,06734860822203466  -1,477906425245966
83  0,96637939453125  0,00325492298007011  0,057051932307943  -1,2569054839722007  0,3538147201753037  0,15096923828125  0,020330901926755907  0,14258647175225253  0,7116944786814321  -1,258823624056357  -0,06712158203125  0,0012083008944988247  0,034760622757638054  -0,026875408801929585  -0,8898808882520521  -3,621875  40,309951171874985  6,349011826408499  0,04086040332070405  -1,5947771249141671  -10,725  63,654687500000016  7,97838877844393  -0,42578726253465315  -1,342163468714923  0,2675  316,60078749999985  17,793279278986205  -0,7567297194526188  0,6262117834424576
84  0,94366943359375  0,001817884272336961  0,042636654094065134  -0,43185683322162227  -1,041458924260178  0,17158935546875  0,0008625412642955778  0,029369052832796255  -0,5313909218926024  -0,35669303023010457  -0,1076318359375  0,004033819460868836  0,06351235675731799  -0,08409391232737216  -1,3667975029053527  -7,366875  2,233176171875  1,4943815349083378  0,7821024496634303  0,4081609547827205  -30,66375  63,95912343749997  7,997444806780473  -0,2826699186387655  -0,6266909431500629  -7,699375  111,81474179687491  10,57424899446173  0,07892040817596924  -1,0545136922335214
85  0,9113232421875  0,0006029624700546264  0,02455529413496459  0,00040871729044061363  -1,285700007979585  0,1698046875  0,0009505766391754147  0,030831422918435256  0,7118014782139883  -0,4673263906271532  -0,180673828125  0,0003452180862426758  0,018580045377842212  0,3182477727255365  -0,7776811200615454  -2,433125  21,629551171874997  4,650758128722133  0,02632484471056018  -0,5413928795647553  0,285  70,16057187500003  8,376190773555724  -0,14911925233257423  -0,9541631223095814  3,71375  55,841498437499965  7,472716938135685  0,035135551413670085  -0,8313816769400626
86  0,945576171875  0,004326841449737547  0,06577873098302785  0,1412304382405752  -1,4234965358034786  0,18997314453125  0,0004906304538249969  0,022150179543854648  -0,3589382772729056  -1,0360000258151472  -0,249482421875  0,001070469951629639  0,032718037099276585  0,7243378193025792  -0,5300049453372684  17,045625  74,46936367187503  8,629563353488694  0,1964528736591801  -1,3632950794104466  13,750625  107,65230429687497  10,375562842413657  -0,32525547215942735  -1,163089404090759  -18,4775  269,3823062499999  16,412870140533006  -0,40939085123410623  -1,3710022704426486
87  0,9380859375  0,000963379144668579  0,03103834958029468  0,6344034551485993  -0,24175310326746313  0,20073974609375  0,006147786206007002  0,07840781980138845  0,5968534342383535  -1,1359353633059015  -0,18331787109375  0,00468414861559868  0,06844084026075863  -0,16479430739987194  -1,410692586644804  20,503125  102,20409179687496  10,109603938675093  -0,023251767523376078  -0,22251806288873777  15,798125  62,05381679687505  7,87742450277215  -0,7256587665330333  -0,2777051710061347  -13,69  270,56811875000005  16,44895494400784  0,009989307477478693  -1,365732965483979
88  0,99829345703125  0,0012920564353466031  0,03594518653932127  0,286460892010846  -0,5647246420473513  0,060458984375  0,008819363737106317  0,09391146754846459  0,274373392737323  -0,3792427853000553  -0,3705322265625  0,016337365508079522  0,12781770420438446  0,3686790289468389  -1,2042627401019068  29,320625  87,761769921875  9,368125208486221  0,3118933668070354  -0,98387462420505  12,809375  85,541591796875  9,248869757806895  -0,8775984146255555  0,23292047116228076  -2,7575  526,7528343749998  22,951096583278975  -0,09249510189231601  -1,4325400011227787
89  0,96435791015625  0,005036181801557539  0,07096606091335167  -0,02122921599258408  -1,4250071560810553  0,1825146484375  0,001433627820014953  0,037863277988242815  -0,14077233919888194  -0,8687694900446123  -0,28475830078125  0,008063466137647626  0,08979680471847329  0,09118930866691606  -0,9001430741277368  -19,456875  104,99888242187497  10,246896233585806  1,6441406351137864  2,619152113695905  -28,959375  141,40745117187504  11,89148649967173  -0,1967092646991889  -0,7801711811268448  8,70125  113,91457656249997  10,673077183385304  -1,0784973203357358  0,8170517038614946
90  0,95294921875  0,011314714050292971  0,1063706446830749  -0,2325040323130477  -1,2773755748611302  0,112431640625  0,005773462629318241  0,07598330493811283  0,6183105302715828  -0,9433571457362477  -0,30800537109375  0,007649059408903126  0,08745890125597923  -0,04139066102118703  -1,2350706934796787  -11,74625  25,667954687499993  5,066355167919043  -0,46833454951610837  -1,108175280494215  -17,7225  191,95885312500016  13,854921621034173  -0,15637439278346751  -1,0460205978906099  22,733125  179,453660546875  13,396031522315667  0,501597788633546  -0,9076862368294307
91  0,92671142578125  0,0016374918162822731  0,040465934022116345  1,7709848473696879  2,5144255149000045  0,1600244140625  0,0035331444978713967  0,05944025990750206  0,5126863642286745  -0,9432803807337526  -0,3386279296875  0,003951077437400818  0,06285759649716824  -1,0687715728597023  -0,03397075010653072  -3,0675  50,296928125  7,092032721653221  0,29726633708284356  -0,7092168947311923  -6,568125  227,06352304687493  15,068627112211482  -0,8330068199127035  -0,6261880719591923  1,201875  133,00608242187508  11,532826298088214  -0,8567429616381202  -0,10459672862438163
92  0,82128662109375  0,010938131207227707  0,10458552102096975  -0,6264297776529423  -0,47265636090140895  0,1665234375  0,008355862712860113  0,09141040812106745  -0,8004258997241449  -0,5945878656789327  -0,15482666015625  0,02050690180659294  0,1432023107585661  0,14000049952731586  -1,5430375803358816  1,346875  31,59424804687502  5,6208760924677055  0,38837290030989136  -0,44642980174466773  31,875  532,1721875  23,06885752481037  -0,10641751122666744  -1,4946710268822538  -28,45  302,45781250000005  17,391314283285208  -0,4057200257551529  -0,8930509919003011
93  1,0340625  0,046084484434127784  0,2146729708978934  -0,24728408876285468  -1,1968722511809695  0,132939453125  0,02414452252388  0,15538507818925212  0,049307106013741234  -1,6408585524025103  0,299130859375  0,03120659127235414  0,1766538742070327  -0,8390469192388198  -0,08899748440633592  2,5575  193,92231874999993  13,925599403616346  -0,27824817304813054  -1,3871216334210663  31,7675  2275,7864906249993  47,70520402036867  -0,32208351375564853  -1,4905944844920032  15,975625  1224,6158511718743  34,994511729296555  0,011988437412486262  -1,590604562153237
94  0,95412353515625  0,012249666565656663  0,11067821179282154  -0,8651223594417239  -0,4408747375140307  0,20064453125  0,002778057718276975  0,05270728335132607  0,7218250067713015  -0,6784705615473894  0,06090576171875  0,006885183399915696  0,08297700524793418  -1,1241895820277787  0,7426447746347558  -4,003125  16,637451171875004  4,078903182459103  -1,6443800003470468  1,9727966442823561  -14,318125  116,81289804687496  10,808001575077373  0,38918246502794596  -0,9054136586628316  -16,338125  30,488210546874992  5,521613038494729  -0,1757891113734205  -1,0418766546977885
95  0,8839794921875  0,011097330546379087  0,10534386810051682  -0,1456771973142308  -1,2160856261593833  0,27221923828125  0,00908426105380058  0,09531138994789962  0,12240911002642382  -0,9776899310726703  0,07301513671875  0,024025385683774946  0,15500124413621635  0,8267167488083784  -0,7080225402329146  -14,7825  228,56230312499997  15,118277121583661  -0,4383708453681792  -0,8895859436242803  -13,04875  266,18856093750014  16,31528611264602  -0,8327134036831034  -0,36827267880587033  -0,899375  712,9535855468755  26,701190714027632  0,32033995923112407  -1,2084078229142636
96  0,970615234375  0,008795720958709716  0,09378550505653693  -0,5630185030627108  -1,284531544211254  0,16458740234375  0,006009519547224051  0,07752109098319018  0,2824416457512253  -1,5417761729410533  -0,0827978515625  0,004666780257225035  0,06831383649909464  -0,16371871483872857  -0,5712462258170761  -5,31125  84,40663906249998  9,187308586441405  -0,5943441255635991  -0,6739311715210374  -0,31125  23,410310937499993  4,838420293597901  0,7738019532487079  -0,40742540540842853  8,86125  289,4702796875001  17,01382613310422  0,0788314420794588  -1,030698933483153
97  1,02583740234375  0,004404574698209768  0,06636696993391945  -0,6474773472790994  -1,0398449447634037  0,30932373046875  0,011369854801893236  0,10662952124947966  0,24360557310998432  -0,9683769895564751  -0,09566650390625  0,002583042830228804  0,05082364440129027  -0,309942949765561  -1,4470158042421535  7,36625  259,90234531250024  16,121487068893497  0,5061505785051047  -0,8976950509594972  9,8025  35,91388437499999  5,992819401166699  0,2591233932962588  -1,1690168034441568  -20,006875  770,744991796874  27,762294426017352  -0,877542830045073  -0,7540701694691929
98  0,97199951171875  0,017239085072278983  0,13129769637080074  -0,8300155849997006  -0,8636042527984169  0,1321484375  0,0009139133453369138  0,030230999740943298  0,1615017766494344  -0,7112172635335905  -0,228427734375  0,010348035717010498  0,10172529536457733  -0,38557950660940604  -1,2284965330706477  26,17125  60,392470312499945  7,771259248828335  -0,38127367159190906  -1,4431556936944168  -22,65375  186,11761093749993  13,642492841760992  0,7619491709620602  -0,8514337257792679  10,066875  27,581816796874993  5,251839372722189  0,13475281816976095  -0,7812075446994511
99  0,920166015625  0,035646207332611084  0,18880203211991942  0,32120407404840523  -1,1667722914000187  0,16402099609375  0,007205004757642746  0,08488229943658894  0,3597707745137627  -0,9734124057359601  -0,307119140625  0,009758804941177366  0,09878666378199724  0,03339680468899016  -1,2688352959289224  7,399375  49,780929296874994  7,055560168893395  0,371553603399831  -1,0843743319874426  -0,5525  56,62122812499998  7,524707843165738  -1,2170899498445438  1,4798325245675832  13,02625  28,271029687499993  5,317050844923339  0,07543325757163923  -1,1659822383426262
100  0,96768798828125  0,004315339773893356  0,06569124579343397  0,3696372112805394  -0,45330097588980234  0,0769482421875  0,004462739682197573  0,06680374003151  -0,3215757574046653  -1,1872951747046847  -0,23102783203125  0,0030365279853343946  0,05510470021091118  0,9551734738443275  -0,30721849407575696  -8,19375  154,96183593749984  12,448366797998034  1,1390327660366546  -0,15097882222872938  -19,0375  221,4453124999999  14,88103869022589  1,195491141726258  -0,2516337557474251  0,188125  33,229882421875  5,7645366181398305  -0,07991765880075755  -1,1577466253915933
101  0,95117431640625  0,00374024092555046  0,06115750915096576  -0,1531949023206448  -1,1037362859531454  0,12407470703125  0,0012797287642955777  0,03577329680495743  0,2837664349500688  -1,4553330442753651  -0,28385986328125  0,001652923458814621  0,04065616138809247  -0,5636892724746112  -0,442935414819865  -8,765625  7,364169921875  2,713700411223575  -0,8129151166067758  -0,4881839230064986  -17,258125  31,192160546874995  5,584994229797824  0,28928384501493376  -1,3769389913913042  -0,0025  65,33632187500001  8,083088634612391  -0,26936174102315236  -1,4442401563604508
102  0,92715576171875  0,004862038677930832  0,06972832048695016  0,41600921297002574  -0,566481835465396  0,1426611328125  0,0012726142644882202  0,035673719521353814  -0,3199477393935043  -0,9799886195431  -0,32504638671875  0,009015462273359297  0,0949497881691123  0,9312154318734728  -0,5572091011618756  -16,666875  59,05695742187498  7,68485246584962  -0,7964821585499361  -0,6744248542728402  -2,11375  259,6165921875  16,112622138792307  0,3665190372978366  -1,5226123110706802  5,51875  385,92566406250035  19,644990813500023  0,6588202255211427  -1,3284603004586324
103  0,93455810546875  0,004113733023405073  0,064138389622792  0,08624733127484657  -1,3777026671228536  0,09638916015625  0,003402988547086715  0,05833513989943553  0,07460729126365559  -0,9696747645999944  -0,18915771484375  0,0008964530169963843  0,029940825255767155  0,4523063201632247  -0,2853657836145054  -11,86375  47,171514062500044  6,868152157785968  -0,3112254527567569  -0,6402804038085721  5,34875  35,38290468749998  5,948353107163358  0,27551510385321  -0,9624473849270854  10,74  358,99810312500006  18,947245264813564  -0,031659081374454084  -1,3841647281557772
104  0,890029296875  0,0010976938247680664  0,03313146276227578  0,3744314425907046  -0,40482976778234425  0,18513671875  0,004250132894515992  0,06519304329846852  0,4915277776925891  -0,9169796121571752  -0,0398486328125  0,0014886231184005727  0,03858267899460291  -0,14258309234446656  -0,18133809022952185  -2,205625  143,12494492187503  11,963483812078948  -0,36527371176288465  -1,2677644889326247  19,479375  67,17914492187502  8,196288484544393  -0,8156091435853285  -0,55160772788525  -3,37375  363,3055453125001  19,06057568156062  -0,8871418058826873  -0,3448855442749914
105  1,00581787109375  0,21823690420985214  0,46715832884564107  1,2838505703696905  0,6303131771419412  0,09523193359375  0,043861903256177906  0,2094323357463644  -1,8316205781701982  1,8951621851211575  0,154091796875  0,06658358421325686  0,2580379511104071  0,8743851462860629  -0,7007727139003683  35,848125  505,6598636718752  22,48688203535286  0,7773426435577864  -0,3904951241162222  71,658125  1229,173551171875  35,0595714630381  0,6901328007193646  -0,9013823319231502  -26,8625  855,5328906249996  29,249493852458365  -0,6599084335992351  -1,181602950399302
106  0,95970703125  0,08887271037101749  0,29811526356598633  1,1792336728360198  2,122131936279975  0,32790771484375  0,051336601847410214  0,22657581920277858  -1,1155087028153325  1,2238303172943956  0,10563720703125  0,024306845301389702  0,15590652744958983  1,57489535008858  3,8072812185918297  -13,075625  164,67892929687497  12,832728832827216  -0,9401965049463437  -0,6689539589212772  -20,233125  453,17201992187535  21,287837370711834  -0,7857528409211819  -0,18450674337141004  -6,84375  1350,1358203125  36,74419437560851  0,006208277117751183  -1,712454381317636
107  1,00702392578125  0,0008706818282604215  0,02950731821532451  -0,4340770617507074  -0,4424199736366181  0,18056640625  0,001862993240356445  0,04316240540512594  1,3378845790704768  0,7105293393228989  0,122890625  0,0012788158893585202  0,03576053536174368  0,5988953561853517  -0,30354490810655266  -11,12125  19,99834531250001  4,471950951486388  0,35108330229028817  -0,9659474903316436  -33,543125  109,80224179687498  10,478656488160826  -0,20244618550550791  -1,3925718767842696  6,30125  53,1454203125  7,290090555850456  0,00010655061493418284  -0,4867224022866341
108  0,92428466796875  0,0010179372489452366  0,031905128881501744  -0,33019550597563807  -1,374563071876965  0,21126953125  0,0021772855758667  0,04666139277675603  -0,23732714698316257  -1,270862596292289  0,0885302734375  0,013065714573860158  0,11430535671551074  -0,8557429549445544  -0,7478654651521262  -5,19625  37,005157812499995  6,083186485099729  0,7066461227567679  -0,49892798861611487  -31,815625  60,732060546874976  7,793077732633941  0,2832111646145438  -1,3163636557523783  24,98625  136,21324843749994  11,671043159782245  0,5302917060075434  -1,0523690934756555
109  0,92221923828125  0,02882883679270744  0,16979056744326948  0,1988429034523203  -1,3817458346162053  0,10820556640625  0,004988664740324019  0,07063048024984694  0,1300738577463321  -1,6021594997113728  -0,22376953125  0,032195642375946035  0,1794314419937209  -0,20702479317204803  -1,323450733296772  15,174375  27,809788671875005  5,273498712607694  -0,04651202275744546  -0,5186066766781314  -11,221875  586,1270605468749  24,210061142980926  0,3379729517922802  -1,1267555230796356  -20,12875  138,8589703125  11,783843613715348  -0,11102538926982701  -1,2985332354621617
110  0,89218994140625  0,00856686007380486  0,09255733398172648  0,173736925509593  -1,18448073253642  0,1502880859375  0,003912891364097596  0,06255310834880706  1,403407536013745  1,5941309403991761  -0,2981005859375  0,016605975604057317  0,12886417502183187  -0,09478220486384996  -1,6707873254515404  0,37625  139,63827968750002  11,816864207034792  -0,807333476507673  -0,4232208960160513  -32,843125  166,58183554687497  12,906658574041344  -0,5203403695587385  -1,1204366451999839  -39,034375  761,4079980468748  27,59362241618296  -0,6467403619938069  -1,3205882340230624
111  0,92824951171875  0,019982637041807173  0,14135995558080502  -0,8417206065996478  -0,13679230435965417  0,32522216796875  0,0019283436477184298  0,04391290980700812  0,26201179830883736  -1,2893971858676385  -0,3644482421875  0,013063667511940002  0,11429640200784975  -0,9617603066969937  0,4247493825343067  11,1525  74,76580624999998  8,64672228361707  -1,6509824896129983  1,832953843101821  -7,14875  246,60951406249998  15,703805719076506  -0,10266292909450846  -1,2433298739819707  -12,460625  645,6391136718753  25,409429621144103  -1,0511461530663824  -0,3931766655517386
112  0,80405517578125  0,03076144229769706  0,1753894018967425  -0,5055264520001509  -1,4621650010645013  0,29981201171875  0,002072016543149949  0,045519408422671194  0,14451086235190613  -1,3782156634211353  -0,5207666015625  0,030294953370094267  0,17405445518599708  -0,426551352263574  -1,5155762151263918  -11,848125  23,137598046875006  4,810155719607735  0,6652113618635096  -0,5604044612780088  -0,384375  292,8133886718749  17,11179092532032  0,07991113924629294  -1,4889904852907119  -0,67125  223,54801718749997  14,951522236464752  -0,5994915880591467  -1,1681388988538297
113  0,84682861328125  0,0012656627833843228  0,035576154702051804  -0,7315810604697767  -0,8437969077924325  0,32184326171875  0,004299937313795092  0,06557390726344657  -0,4819185107568652  -1,3794686027626422  -0,4604052734375  0,0032193212270736687  0,05673906262068196  0,24431344955521359  -1,505516280817506  -0,920625  64,79787929687497  8,049712994689623  0,07300600716735967  -0,7371603850915696  -5,704375  205,99881679687505  14,352658875514148  0,006443039457090707  -1,5729431984613085  24,621875  32,32127929687499  5,685180674074923  0,6862869459037663  -0,4645375218586212
114  0,99100830078125  0,005341118639707565  0,07308295724522623  -1,1135987712144912  -0,1680987463950956  0,1527197265625  0,0061615448236465465  0,07849550830236432  -0,6388892941445257  -1,0376754658546534  -0,3518994140625  0,005517421698570252  0,07427934907206883  0,39695423215534115  -0,11307741302520524  -11,520625  12,711957421874995  3,565383208278599  0,06013975242322666  -0,2130243795188731  14,0325  57,705193750000014  7,59639346993032  0,4749485783394213  -0,8075894273049409  38,6575  67,21980312500001  8,198768390740161  0,8230679848583672  -0,884649515457125
115  0,91790283203125  0,0033443258464336393  0,05783014651921296  0,8102794921389704  -0,09813783286533972  0,0815771484375  0,00014489891529083257  0,012037396532923246  -0,10875091526144685  -1,2215671419363643  -0,20693603515625  0,0023419629275798796  0,048393831503404226  0,09890107655175834  -1,2992118020933523  -3,39375  35,51519531249999  5,959462669779884  -0,20121512204803838  -1,2789788728155895  6,834375  52,82479492187504  7,268066793988278  0,06873146313020959  -1,0890572894932948  13,550625  40,606460546875  6,372319871669579  0,07110621348151797  -0,8938754726613447
116  0,8799267578125  0,00811073467731476  0,09005961735047933  0,17510144405434985  -0,7252280760635901  0,112314453125  0,006605796718597413  0,08127605255299628  0,36503539985230016  -0,9882568734480168  -0,1339013671875  0,0063749819040298476  0,07984348379191535  -0,16009742034088642  -1,3623667944354498  13,685  87,47030625000006  9,352556134554877  1,178707727718414  0,5760945704133884  3,7  170,4588281250001  13,055988209438615  -1,0746295917660669  0,45450153543518823  -5,81  199,18280625  14,113213888055407  -1,323119669360081  1,3765201183482096
117  0,94157958984375  0,012201660031080247  0,11046112452388056  1,5061420421999574  1,886191702765455  0,20068603515625  0,009665957087278366  0,09831559940964794  -0,1751452439968266  -0,20636162233332866  0,0113720703125  0,018760577654838562  0,13696925806486127  0,23258431539198268  -1,4880120012222373  32,165  200,42246250000005  14,157064049441892  0,44704997498777543  -1,184500886022704  39,439375  199,82987929687505  14,13611966902074  -0,1509234122255643  -1,3467974174172548  -30,435  1337,5776500000004  36,572908689356396  1,1483113605282973  0,2054621893274602
118  1,00175048828125  0,011858928269147872  0,1088987064622343  1,0901891188145367  0,38524998166772306  0,08293212890625  0,0194985982120037  0,1396373811413108  -0,4823367635636005  -1,3951664469837108  0,0235205078125  0,007280212903022765  0,0853241636526416  1,302036645509206  0,9210782964857005  -16,42125  105,5057515624999  10,271599269953043  1,4915280410716845  2,1232183777142284  -12,695  88,04002187500002  9,38296445026837  2,1463703669402787  4,905587917092345  -6,27  938,883193749999  30,64120091886085  0,8135001271624802  -0,9730279715855867
119  0,91562255859375  0,001026599282026291  0,03204058804120628  -0,9220204530302789  -0,03986731752413197  0,2529931640625  0,002382760787010192  0,04881353077795328  -0,42186951046724075  -0,021628964922519867  0,00333984375  0,0028594254016876238  0,0534735953690008  0,7419072133134942  1,0944732232019794  -10,5975  44,230181249999994  6,6505775125172395  -0,19283320688735142  -1,5079943842600847  -5,413125  116,346710546875  10,786413238276893  1,4004036177819215  1,3504018983907224  19,75125  523,2725765624997  22,875151946216658  0,15714660854315857  -0,567310484072097
120  0,9560498046875  0,0009179877996444694  0,03029831347854975  0,20735527847701316  -1,0432291008627448  0,05643310546875  0,007433327883481982  0,08621674943699735  -0,4005544163971462  -0,8257955866061377  -0,023603515625  0,01109586224555969  0,10533689878461246  1,1686638495995845  0,29269705358484144  -7,74625  64,78334531250003  8,04881017992722  -1,056869852241082  0,5387404145492001  -1,933125  53,111894921875034  7,287790812164893  1,2292798626500103  2,245486444780026  35,241875  154,57559804687511  12,432843522174448  1,1030831052961039  0,5459841742633467
121  0,90595703125  0,002856661081314089  0,05344774159227019  -0,5099041382257271  -1,0489809555687564  -0,06655517578125  0,004435798996686936  0,0666017942452524  0,05007607045239085  -1,38968524825328  -0,1162109375  0,000376516580581665  0,019404035162348707  -0,04325538969157669  -0,9281426762832568  2,48375  65,8141109375  8,112589656669442  0,18041081975654696  -0,959014731706465  0,42625  27,817920312500004  5,27426964730663  0,150174704619161  -0,8620541408103302  -2,001875  378,487926171875  19,454766155671855  -0,0763257197931464  -1,209399082526408
122  1,08379638671875  0,006023258990049366  0,07760965784004828  -0,3045529493557226  -1,4329682253165583  0,05612060546875  0,0031479724109172848  0,056106794694736256  -0,7865519020571771  0,09008149651195119  -0,16741455078125  0,004039512699842453  0,0635571608856347  -0,3901325838365738  -0,9237400264747433  16,64125  277,38512656250003  16,654882964539258  0,4473694696259099  -1,2240424922092334  -12,525  88,13757812499996  9,388161594529569  -0,06392927158486855  -1,1742337348280532  -13,386875  104,74044492187505  10,23427793847104  0,6079905695758235  -0,7538774530757069
123  0,92620849609375  0,004699665755033493  0,06855410822870861  -0,30452930597260586  -1,155611433285264  -0,00326416015625  0,018633330649137497  0,13650395836435475  0,07851096760739193  -1,44559165320057  -0,330634765625  0,004815238809585573  0,06939192178910722  -0,09004600434658291  -1,207063863520299  35,275  590,8019531250002  24,306417941050057  -0,45907177702284463  -1,2947150782839638  -20,858125  115,00811367187494  10,72418358999299  0,49730444427171533  -1,1577601581705617  -30,846875  425,7547949218751  20,633826473096914  0,08074701123012015  -1,514484880478688
124  0,9603564453125  0,00488324258327484  0,06988020165450898  0,29529943374788775  -1,448574613986125  0,10051025390625  0,007074805134534832  0,08411186084337233  0,20936938376088046  -1,4048760781191443  -0,32954345703125  0,009903937214612957  0,09951852699177655  -0,04066308940398035  -1,423191258300759  -6,339375  21,083691796874994  4,5916981386928075  -1,7247289531654137  2,180995782051487  1,005  161,75935000000015  12,71846492309509  -0,5392981792779101  -1,079542443354215  -1,893125  143,453773046875  11,977218919552026  -0,7525079161075819  -1,0648807041363075
125  0,89735107421875  0,00554406210780144  0,07445845894054913  -0,30896523059427106  -1,222582332891435  0,09194580078125  0,00571263539195061  0,07558197795738485  -0,5561742857769003  -0,7554446168353683  -0,35510009765625  0,006396235817670824  0,07997647040017973  0,0781353128633768  -0,8033976976509254  -18,12125  80,1786578125  8,9542536156008  0,8021706442303694  -0,9598116863385906  -10,566875  48,91259804687499  6,993754216933491  0,11943420768508127  -1,0647289254984003  20,030625  200,33386679687504  14,15393467544891  1,326195071276815  0,1251840198169294
126  1,0063916015625  0,005957297539711001  0,07718353153173935  -0,9736389760487422  -0,42681300183211857  0,00262451171875  0,001826971024274826  0,042743081595444495  0,2787879851719974  -0,9679509057248419  -0,2834814453125  0,0024612033605575573  0,04961051663264108  -0,4297957670512482  -0,6496380492847496  -21,756875  25,195929296874997  5,019554691093125  0,3417337133024422  -0,40080522695334553  -1,538125  52,54522617187501  7,248808603617219  -0,4651842531064062  -0,14330123479956836  10,65625  265,4650390625  16,293097896425344  0,5327355721445038  -0,31977800647970334
127  0,9758154296875  0,0030841670274734485  0,0555352773241788  -0,03001943380098934  -0,3447613611481364  0,04619873046875  0,00035683733820915213  0,01889013864981282  -0,8336054320750527  0,13434008666105557  -0,1586767578125  0,0014999935865402216  0,03872975066457596  -0,5962486669264271  -0,50580160305369  -10,443125  59,790476171875  7,732430159521326  -0,10327097130625158  -0,6220220541735828  -2,5075  32,997600000000006  5,744353749552686  -0,1708149986155409  -0,8411985453593327  -2,868125  84,79569492187505  9,208457792805213  0,6619298419870769  -0,764059360446407
128  0,86811767578125  0,001893983715772628  0,04351992320504056  0,5924148908012566  -0,8745935673035863  0,09826904296875  0,0008870726764202117  0,029783765316363404  -0,16421833217589252  -0,4552617876497034  -0,093984375  0,002854506874084473  0,05342758532897096  0,07366285851261609  -0,42350064195858605  -10,25875  70,66140781250004  8,406034012095123  -0,1371919580908297  -1,667334832396213  12,818125  52,60774179687496  7,253119452819935  -0,14589145384848218  -0,8831999410338884  3,585625  69,04684804687498  8,309443305473296  0,24814716417370938  -1,412150655648104
129  0,81676025390625  0,01022600099444389  0,10112369155862483  -0,7247148781715048  -0,9531155530903641  0,1232958984375  0,0008752941846847532  0,029585371126365022  -0,4189634316618231  -0,5021742423212676  -0,07650634765625  0,0010723777472972872  0,032747179226572894  0,5452341057779254  -0,2753188142061922  13,419375  374,05627304687505  19,340534456081482  0,5343431511577454  -0,4434404076092493  19,89  398,28868125  19,957171173540605  1,832257875022079  2,544061765537063  0,88375  237,90554843749993  15,424187124043197  -0,6704535686078298  0,09809901056437065
130  1,10201171875  0,05450636234283447  0,23346597684209677  0,32583577348286735  -1,1100608685784883  -0,00385986328125  0,03031694614291192  0,174117621574934  -0,57265896515549  -1,2710478308269935  0,12416259765625  0,028105961388349542  0,1676483265301194  0,36421447817073643  -1,090271984425523  9,924375  1226,7004917968752  35,0242843152701  0,7010721865162745  -1,1906587688091146  16,9025  2001,0500249999996  44,73309764592655  0,830059573470278  -0,8942475821225013  -8,569375  692,1200699218762  26,308174963723275  -0,1545904988732761  -0,8590524319726343
131  0,986796875  0,006045341110229497  0,07775179168501196  0,47252496517245657  -0,39901910719778577  0,03853759765625  0,0007318215072155002  0,027052199674250155  0,454399901959987  -0,29424671401330293  0,00454833984375  0,00211293894648552  0,04596671563735569  -0,08273974414536667  -0,5894811825897937  -17,570625  2,912941796874997  1,706734249048456  0,22599871559745102  -0,7570977498897316  -28,23125  76,29332031249996  8,73460475994764  1,5712668785630768  1,6276298852773818  -7,15125  183,49423281250012  13,546004311696498  0,5606314584319916  -1,0450602418414796
132  0,942958984375  0,0006106132507324218  0,02471058984994939  -0,23058171843904524  0,6559258582485921  0,1451953125  0,007255042886734016  0,08517653953251456  -0,42804060825726303  -0,6140071314798274  -0,010869140625  0,003988174772262571  0,06315199737350016  -0,6026383277043951  -0,1875902028030798  -17,87375  254,99124843750008  15,968445398269052  0,22583192028283286  -0,7162100458098273  -9,3925  67,13070937499998  8,193333227386763  0,10143718267372248  -0,8519541269027924  1,62375  713,4901546874993  26,711236487431638  0,4296465128300474  -1,1134892993932457
133  0,939208984375  0,0013397669792175294  0,03660282747572282  -0,5897030246163382  -0,5714261724959613  0,0942041015625  0,002911807322502138  0,0539611649476004  -0,8208773300934276  -0,38740729331389767  -0,15076416015625  0,0025872045218944552  0,05086457039919295  -0,427755177677203  -0,9757137413015782  11,28125  151,7641796875  12,319260517072443  0,43649273218225104  -1,2420723880602835  -1,659375  75,26049804687499  8,675280862708423  0,44575330370487004  -1,059914023919066  2,100625  281,5162417968748  16,778445750333216  -0,35391908560127455  -1,366831548827759
134  0,96660888671875  0,00028465849757194526  0,016871825555402866  -0,23547842319702136  -0,020218165161124624  0,043916015625  0,0028055540084838877  0,052967480669594696  0,43498653812124527  -1,362131829965768  -0,16672607421875  0,006122101658582686  0,0782438601973515  -0,008252480371674937  -1,7548261863315635  8,9175  67,41288125000001  8,210534772473716  0,353339620079506  -1,0060444573595793  -12,263125  39,300960546875004  6,269047818199747  0,2386687638024888  -0,8473682180744873  -12,56  172,95499374999991  13,15123544576706  0,8224990084267414  -0,24484092391562395
135  0,99203857421875  0,0014627133548259735  0,038245435738476996  0,42885505504732857  -0,12264097537745622  0,08754150390625  0,0025423565566539763  0,05042178652778952  -0,4588848569458952  -0,062458372692444364  -0,079658203125  0,012211150026321416  0,11050407244224719  -0,02609267527858425  -1,2854580252222472  9,000625  40,678866796875006  6,3779986513698015  -0,22284840545469523  -0,41109505206793706  -4,061875  195,11605429687495  13,968394836088896  -2,1260473356776624  4,201676988213891  -18,101875  55,156769921875  7,426760392114114  0,8310403352671244  -0,4943964525291875
136  0,8887109375  0,10261950221061707  0,32034278860404686  0,1787904733357259  -1,4844800083252478  0,2050341796875  0,045889889454841626  0,21421925556504398  -0,16323346905597336  -1,610239128076532  -0,48128173828125  0,05766423828005793  0,24013379245757546  -0,2928009673111284  -1,3593780767697778  12,4325  177,77044374999994  13,33305830445513  -0,37386603916599626  -0,9801640779818248  -12,9375  1735,5040625  41,65938144644013  -0,2578099402622335  -1,4655555024945726  -3,708125  158,13422304687504  12,575143062680242  -0,4687928622230922  -0,9112782537416355
137  0,90015625  0,007804825210571279  0,0883449218154121  1,3150046825792374  1,5491672428776537  0,1540478515625  0,002087579941749573  0,04569004204145114  0,14424182970496746  -1,463812594268242  -0,35037841796875  0,00470856234431267  0,06861896490266135  -0,27916145435608186  -1,2889576640897649  2,75  17,648671875  4,2010322392240695  -0,32712546339648835  0,9289739979295328  -10,524375  203,78756992187493  14,275418379924105  -0,6372894954424124  -1,2432290221273905  -4,165  6,377853125000001  2,5254411743297447  0,00898908677421084  -1,2282962848727152
138  0,8827392578125  0,000823667645454407  0,028699610545343764  -0,3190333782698169  -1,021136039004085  0,17410888671875  0,002313039749860762  0,04809407187856692  0,28465727878279673  -1,0099708572116382  -0,3942333984375  0,001860030388832093  0,04312806961634259  -0,02407161261639424  -1,1765208211002889  3,96  10,245275000000003  3,200824112630996  -0,595681174167418  0,13474326743149723  -0,3475  35,73869687500002  5,978185082029496  0,060467781155422666  -0,8525083376884974  8,40625  21,1820703125  4,60239832179919  -1,40537982572668  1,321205353129864
139  0,97550048828125  0,0008477775752544401  0,0291166202581007  0,2648655758992505  -0,5049201960496821  0,0851171875  0,0006499666213989257  0,025494442951335995  0,6046813060850786  0,010125883668296254  -0,29674072265625  0,0015628759562969208  0,03953322597887656  0,3827190070887993  -0,7107899503178006  -11,050625  27,514741796874986  5,245449627713051  -0,3380301363197477  -1,3239629558333745  4,290625  13,631201171874999  3,692045662214242  0,006860305806473251  -0,2660799045925435  18,533125  40,475348046875  6,362023895497014  1,0396581684911301  0,05253876741069918
140  0,95770263671875  0,0035866646468639372  0,05988876895432012  0,3837320018530706  -0,7837864946380142  0,019580078125  0,009490386247634885  0,09741861345571946  -1,3387447478735333  0,974792833915108  -0,2050341796875  0,010732701277732848  0,10359875133288454  0,7931623969198768  0,136046349108629  3,04125  63,322985937499965  7,957574123908615  -1,3324829524035078  1,6001004159062635  20,590625  210,76690429687497  14,517813344194606  0,29492352096505436  -1,2581885394529175  35,43125  139,39800781250003  11,806693347948867  0,24344201625257808  -0,4443124051701841
141  0,8908740234375  0,0020696043729782083  0,045492904644331165  1,7595735269902628  2,236953561679371  -0,08107666015625  0,0017086983859539023  0,04133640509229004  -0,32342458959174447  -1,0710465104548141  -0,0659326171875  0,003605847144126893  0,06004870643175332  -0,2025796396343316  -0,8955087701711295  16,03625  16,172279687499987  4,021477301626852  -0,6999257089353509  0,6811374465647297  12,788125  136,35772617187502  11,67723110038827  -0,30958317687876136  -1,0719200451883122  -9,1425  186,29563124999996  13,649015761218827  -1,01940316338502  2,0811878429540025
142  0,92392578125  0,0017969572544097904  0,04239053260351644  0,3208806537006888  -0,5964830786118314  0,11571533203125  0,011292255467176437  0,10626502466558052  -0,8146679469006629  -0,44181850316372673  0,06575439453125  0,004961106842756272  0,07043512506382218  0,1740943305637235  -1,3747977320051858  13,908125  52,289644921874995  7,23115792400325  0,1595989090075482  0,6190501000454836  30,068125  56,69914804687499  7,529883667552573  0,6070118238198218  -0,14908953240583367  -31,5425  611,619521875  24,73094259980804  0,4180309736479425  -1,1101519894924288
143  1,00208251953125  0,0019794767558574677  0,0444913110152698  -0,04682910249568977  -1,3361209725237249  -0,01803466796875  0,014984911268949509  0,12241287215382829  -0,041879217564499596  -1,6180456037748845  0,2123974609375  0,008652335381507874  0,09301793043014811  -0,6379318209325909  -0,9980001558571505  4,18625  256,99335781249977  16,031012376406544  0,41345430681059586  -1,434097805701771  -3,846875  468,8914355468748  21,653901162305022  0,283950592620182  -1,4629561456084175  0,874375  596,1922261718747  24,417047859474632  0,09353454088427215  -1,172984504148906
144  0,9684765625  0,0003807273864746093  0,019512236839342875  -0,2933666663683184  -0,9827677107910686  0,11634765625  0,0013129536151885981  0,03623470180902001  1,134153892905691  0,025921210427757302  0,04959228515625  0,000482674425840378  0,021969852658595097  0,060437169673886904  -0,9770959942636264  -10,451875  8,603973046875002  2,9332529803743492  0,5047797877530483  -1,0016221951002873  -16,6875  30,453203125  5,518442092203197  0,853573915196367  -0,5339515428432948  -1,99625  47,014907812500006  6,856741778169862  -0,5504198636182718  -0,022039015116257055
145  0,9891259765625  0,0009595172643661501  0,03097607567730538  0,43493965443592875  -0,3640729652001329  0,1161376953125  0,0028280001878738404  0,05317894496766404  0,7999547590151083  -0,5275352329469705  0,02816162109375  0,0008357088267803198  0,02890862893290375  -0,08909530805099128  -1,2310072091610242  -3,678125  32,26924804687502  5,680602789042288  -0,29534746106245036  -0,7678888365168426  -9,250625  31,662226171874998  5,626919776562929  0,14734477212017869  -0,5056510821074713  -13,14875  160,8522484375  12,682753976857708  0,25258026129848965  -0,7514272363255179
146  0,889755859375  0,0008466640949249264  0,029097492931950793  0,8608659990555686  0,5137416928541128  0,06083740234375  0,003581606978178024  0,05984652853907254  1,2107137846857432  0,2208999923400521  -0,05941650390625  0,0016221519172191633  0,040275947130007546  0,16349813800864502  -1,188093535574106  -5,256875  120,66225742187504  10,984637336838892  0,05718596914997529  -0,7266138927032477  3,483125  25,992644921875012  5,0982982378314246  -1,0374537129126185  -0,13985773167419824  -10,471875  209,86471679687503  14,48670828024348  -0,30026208770411916  -1,1028429557292667
147  1,03899169921875  0,0008346525371074673  0,028890353703398427  -0,28602077467915576  -0,9199119406023968  0,19701904296875  0,0004582029521465304  0,02140567569936839  0,2681935497060303  -0,681155826138391  -0,09111083984375  0,00032616936564445494  0,018060159624002634  -0,6774803267246778  -0,6834871114858561  27,881875  192,02780429687508  13,857409725373465  0,14727483245928388  -0,6643770135175804  -0,389375  43,899676171875  6,6256830720971704  0,03302576373716585  -0,013367014904599017  -22,90875  200,89714218750007  14,173818899206383  -0,8783978835291743  0,05846950747072999
148  0,933720703125  0,0006698053836822511  0,025880598595902898  0,6167421010275166  -0,6915604332483136  0,1984033203125  0,0026014986276626582  0,05100488827222993  0,6541501136969688  -0,9003984580180133  -0,15788330078125  0,0008422287642955778  0,029021177858515285  -1,1922059238544105  0,5990504223831663  10,9  486,53742187500023  22,0575932929003  -0,03475659386667509  -0,47084882430680164  -1,176875  15,784613671875006  3,972985485988466  -0,2306019206619382  -0,7721994543917989  -10,741875  292,368254296875  17,098779321836837  -0,9375198343051679  0,6688793887587106
