ventana  acc_x__mean  acc_x__var  acc_x__std  acc_x__skew  acc_x__kurtosis  acc_y__mean  acc_y__var  acc_y__std  acc_y__skew  acc_y__kurtosis  acc_z__mean  acc_z__var  acc_z__std  acc_z__skew  acc_z__kurtosis  gyro_x__mean  gyro_x__var  gyro_x__std  gyro_x__skew  gyro_x__kurtosis  gyro_y__mean  gyro_y__var  gyro_y__std  gyro_y__skew  gyro_y__kurtosis  gyro_z__mean  gyro_z__var  gyro_z__std  gyro_z__skew  gyro_z__kurtosis
1  1,18205810546875  0,022485493773221957  0,14995163811449996  -0,08108282557801029  -1,2502151032316258  -0,0928955078125  0,038297913670539856  0,1956985275124467  0,3556287211372213  -1,3706306919117246  -0,3929736328125  0,06564664099216466  0,2562160045589749  0,16549407589841222  -1,497704885387799  6,343125  484,802538671875  22,0182319606247  -0,21129310527580802  0,32008873581626895  11,103125  1769,9235449218738  42,07045929059812  -0,19143973930266567  -1,7161986037988974  63,72875  670,6064234374999  25,896069652314033  -0,371031215929854  -0,8795219165795589
2  0,2818115234375  0,2722620147466659  0,5217873271234803  0,2890287628608314  -1,0711041277995952  -0,10950927734375  0,10497702524065972  0,3240015821576489  1,2313210652981703  -0,03277583514918048  1,0976171875  0,38723799433708167  0,6222844963013956  -0,15375519984652655  -1,2219838227389324  -60,5725  531,2452906249999  23,04875898231833  1,461076388689125  0,5935723083337594  131,5475  2720,091806250001  52,154499386438374  0,5118142028091722  -1,0717981572371174  -11,3875  9482,025703125006  97,3756935950908  -0,5174747442928714  -1,1623070723880464
3  0,52974853515625  0,011763390749692904  0,10845916627788038  0,5082658484996803  -0,9722112350531087  -0,0844189453125  0,04155687878131866  0,20385504355133985  1,6376270799124104  1,8851078738557225  1,06814697265625  0,025594775265455238  0,15998367187139828  0,30382227753111324  -0,5474074726668698  7,871875  720,7171386718742  26,846175494320867  -0,4178383244912024  -1,0600984544170584  -68,07375  1019,8512015624997  31,93510923047704  1,4056202736315506  1,8035446983852053  26,88  835,7657562499996  28,909613561063033  -0,3009600732946039  0,4927747092523873
4  0,65603271484375  0,004410036677122117  0,06640810701354254  0,2380482330773688  -0,9166845810874928  -0,05674560546875  0,005998795336484908  0,0774518904642418  -0,3971074206202602  -0,8801875540649728  0,43041015625  0,04253653397560122  0,20624387015279078  0,11453154916452563  -1,242069410186346  44,118125  816,3115542968752  28,571166484707536  0,3728122953648792  -1,2066650479564949  -34,23  1215,651396875  34,86619274992611  -0,15678962647282454  -0,8853808352826866  -28,146875  466,616123046875  21,60129910553703  -0,39500196649771907  -0,9977718465174727
5  1,12000732421875  0,009061574190855022  0,09519230111125071  -1,1453796653877275  0,5163135515135031  -0,0864501953125  0,022540517449378957  0,15013499741692127  -0,6670001601253658  -0,876240047316879  0,33041015625  0,00885688843727112  0,09411104312072585  -0,6646806137127802  -0,3921234874620123  11,24625  868,7835796875013  29,47513493925857  -0,2717292927514016  -0,8999909193418612  1,195  451,02689687500026  21,23739383434324  -0,41606726812661937  -1,0964808932096484  -27,62625  1021,9849984375  31,96850009677495  -0,31072266826085654  -0,5216476147832743
6  1,0459521484375  0,0021537716150283816  0,046408745027509433  1,240725475460709  0,42064698684949553  0,12745849609375  0,07240578443408015  0,2690832295667646  0,034872436783285644  -1,633185727507696  0,09241455078125  0,014312780445814135  0,11963603322500348  -0,5268174254319369  -0,6522959293330648  -18,4475  363,4727125  19,064960333029806  0,43754314007148104  -0,8528982837698256  -24,05625  434,1790234375001  20,836962912994306  -0,43133105752929923  -1,0346308881752597  -64,658125  855,4385511718746  29,247881139868483  1,1145049093353583  -0,14362354482977802
7  1,48116943359375  0,03884434658885001  0,1970896917366558  -0,5449788645875746  -0,7025165397297122  0,28671630859375  0,002682894343137741  0,05179666343634251  -0,904222360103132  -0,36706000700121466  -0,144912109375  0,006193857574462892  0,07870106463360513  0,20636361502440828  0,18253506010214515  29,225625  158,722569921875  12,598514591882449  -0,8673704053518718  0,6980228920681713  -44,456875  660,3034136718744  25,696369659387187  -0,36313457631874313  -1,4366632038164033  54,99375  780,1939453124999  27,931952049803105  -0,7367323383138036  -0,9574897409938585
8  0,1731103515625  0,38453701832294457  0,6201104888025557  -0,13062433225660014  -1,4120537071437953  -0,21457763671875  0,010494639986753462  0,10244335013437164  1,2892477413064491  2,3081473157690153  0,44785888671875  0,6605145838916302  0,8127204832484722  1,2715136307383479  0,15625696509316134  -40,05375  775,8993765624999  27,854970410368416  0,5494064854635795  -0,6821901721227697  100,945  11968,606037500002  109,40112448005277  0,7582426227541976  -0,7201245364512108  21,5425  2691,9769437500017  51,88426489553458  -0,6920275071386248  0,5297032220159812
9  0,5978271484375  0,07048906743526465  0,2654977729384272  -0,6793001366045895  1,012830468277504  0,26400390625  0,12489191713333132  0,3534005052816582  0,6737558556020644  -1,2343468697749376  1,3839111328125  0,2659208530187607  0,515675142913405  1,0145461127879585  -0,4085813718023781  9,51  2187,6367750000004  46,77217949807343  -0,22230499798140463  -1,523358123290665  -14,163125  13811,238976171879  117,52122776831375  1,2973772370137562  0,270461515514532  -3,749375  6349,988163671873  79,68681298478359  -1,4286675406346163  0,36223705177766385
10  0,50543212890625  0,0279305462539196  0,1671243436903182  1,0828417002471202  -0,4691068790623176  -0,1149365234375  0,006289696192741394  0,07930760488592122  -0,5116900367162117  0,07981868994378916  0,41517578125  0,09854231157302858  0,3139144972329704  0,6858391597541132  -0,8160343838144848  26,760625  172,048598046875  13,116729700915354  -0,03047836251928879  -0,4977455772386108  -45,589375  2146,9279105468736  46,33495344280464  0,4082723067965353  -1,1868910234580936  19,916875  202,91547304687487  14,244840225389503  0,9437084804136262  -0,6203690826970112
11  1,10341064453125  0,03171963602900504  0,17810007307411482  1,3676863692197614  0,7348173244603737  -0,02023193359375  0,010587659662961959  0,10289635398284022  -0,5418553165414737  0,10594218432547509  0,28779541015625  0,013536390894651402  0,11634599647023271  0,5571750374391204  -0,7264393143303063  3,12875  107,37982968749996  10,362423929153833  0,4029824113662114  -0,8537017049477713  39,213125  271,74477304687497  16,484682982904918  0,19393821691103424  -1,3714808007816262  -33,2725  230,83425937499985  15,193230708937445  0,08488451811609035  -0,9504478377474896
12  1,230498046875  0,02807989630699159  0,1675705711245014  1,080498867605755  -0,06125187805157983  0,06450927734375  0,01631732088923454  0,12773926917449677  0,9056428902416764  -0,6246710707836431  0,30849853515625  0,048269363516569165  0,21970289828896014  0,5873063831437562  -1,0705098613083635  -10,284375  266,229169921875  16,3165305724555  1,0960389816562845  1,1046729559186703  -12,516875  1034,566551171876  32,16467862690184  1,2557833815786976  0,8612624025092948  -12,105625  244,509663671875  15,636804778210765  0,09900807070935923  -0,5316082764119221
13  1,3284912109375  0,0220402055978775  0,14845944091864788  -0,14226283727197875  -0,7737931951457537  -0,2344677734375  0,041064991688728326  0,20264498930081723  -0,01393803089049665  -0,28817844352980737  -0,00105224609375  0,006902916067838665  0,08308378944077277  0,34302115926657906  -0,9736870060282437  -4,25625  734,259335937501  27,097220077666655  -0,23581905604990477  -0,8232258608683218  -23,523125  1297,6452855468756  36,02284394029538  -0,32001707665240353  -1,3456235500745437  94,01625  1014,7782515625  31,85558430734712  -0,24959986822673588  -1,275792992303068
14  0,35681396484375  0,5894281011760234  0,7677422101044226  -0,4120285234684402  -1,5212311791975222  -0,2770947265625  0,009718682742118838  0,09858337964443518  -0,3826650191576221  -1,5162606124176154  0,53143798828125  0,3250022791087628  0,5700897114566819  0,993063544915115  0,055662673055763445  -65,974375  438,76531992187483  20,946725756592002  -0,3222441488954485  -1,5019731540336076  55,226875  5757,330676171874  75,87707609134576  1,4523875590541302  0,9944036583626801  42,304375  611,2477855468751  24,723425845680755  -1,2260336155235025  0,659836147243086
15  0,48052001953125  0,08611436044573782  0,293452484136253  -0,25528059538246595  0,4499653551283873  -0,2418212890625  0,04837959349155426  0,2199536166821411  0,7455389800898897  -0,8347195597905301  1,10370361328125  0,30195323926806455  0,5495027199824079  0,6108935415703671  -1,0075657990352167  2,79  1577,7884000000008  39,72138466871467  -0,06597969069545086  -1,7280977561425066  6,185  8462,850306250002  91,99375145220463  1,3151913412061609  0,5674354289723822  -52,534375  2905,9694824218777  53,907044831096776  -1,1689141804854881  -0,1022988755216585
16  0,4447509765625  0,019825705885887144  0,14080378505525745  0,7789451389445012  -0,2789375760497417  -0,1553564453125  0,010635787510871879  0,10312995447915159  0,3540386370214406  -1,2072401872594591  0,64455810546875  0,02019966351389885  0,14212552027661624  0,045842295822343476  -1,3233764639158667  57,431875  1023,559460546875  31,99311583054822  -0,0936222024362071  -0,3854372544937732  -23,89625  614,5143140624999  24,789399227542805  0,013213542401294598  -1,0617004143283328  -3,8325  697,0024906250001  26,400804734420504  -0,7875972036703516  -0,48340373856296104
17  1,07365478515625  0,020896887415647495  0,14455755744909188  -0,7842259095345558  -0,7401788331676178  -0,24945556640625  0,013559881275892258  0,11644690324732666  0,41624428069911584  -0,8429809348997743  0,2673828125  0,027431751489639274  0,1656253346853653  0,31258457905961057  -0,7069584763009855  37,60125  499,0045140624998  22,33840894205538  1,0029599076504923  -0,40460530168335707  -7,576875  355,83264492187504  18,863526842080063  0,7407809007568956  0,4640833458992599  -29,28625  255,73946718750008  15,99185627710242  0,038254822151780325  -0,7976614908818105
18  1,08427001953125  0,01295905358195305  0,11383783897260634  -0,15730268787724816  -1,2543576688440206  -0,1571826171875  0,0451404599905014  0,21246284378804073  -0,5533116105206299  -0,9946874692922347  0,352392578125  0,038885179758071875  0,19719325484932762  0,3333467644337431  -1,0936236030896038  16,66375  718,3477953124999  26,802011031124138  -0,9626449939468111  -0,1400266721564667  8,75  969,983515625  31,144558362978916  0,06101609844245675  -1,0352432217375498  -11,961875  265,05522617187506  16,28051676611879  -0,20012536058066135  -1,3921802356490696
19  1,39664306640625  0,02475714728236198  0,15734404114030495  0,276730868409832  -1,3612188238611684  -0,15733642578125  0,010749074667692178  0,10367774432197191  0,33768600468134985  -0,9616604032656908  0,04181640625  0,02913706431388855  0,1706958239497632  -0,38441769536281173  -1,4560515078809668  -27,785625  149,35517617187506  12,221095538939014  0,09189857408807633  -0,760510574112764  -60,650625  1170,041101171875  34,20586354957107  0,3728006649147064  -0,9703706232855605  15,195  1101,6479124999992  33,19108182177856  -0,10702758457288866  -1,5749768996405096
20  0,55689208984375  0,5231517999827863  0,7232923336955717  -0,7293157286832556  -0,8826637438767713  -0,25739501953125  0,010109490507841115  0,1005459621657733  0,3640906866947387  -0,9345618965623652  0,21650390625  0,19288799166679382  0,4391901543372686  1,07489035087509  -0,07556999969096267  -57,67875  521,8553921874998  22,844154442384156  0,22783818747673742  -1,2984726580735784  62,730625  3722,1516167968757  61,00943875169543  0,35798807695684076  -1,0654605314587937  51,52375  429,4600609375001  20,7234181769683  -1,1316337542826274  0,35159316670386875
21  0,3590087890625  0,19028231084346772  0,4362136068985787  -1,3801149151782792  0,8349167471159302  -0,18810302734375  0,011673660820722576  0,10804471676450716  -0,2884371686610924  -1,1659031923575502  1,2050927734375  0,2252723298311235  0,4746286230634679  -0,0944999973912939  -1,5878884177952808  -25,92625  855,9636234374999  29,25685600739594  0,4437805600076193  -0,5301443311482084  51,88625  11498,383389062506  107,23051519536081  0,5566496855750688  -1,3120400166612944  -24,2525  1231,9428843750006  35,09904392394472  0,4701196720413091  -0,7783399410001577
22  0,4831298828125  0,005848910212516786  0,07647816820842916  0,4239315369592555  -1,0772473951994452  -0,1421337890625  0,018560846304893505  0,13623819693791278  -0,2108683609174424  -0,9186945545337699  0,78365478515625  0,02782208368182183  0,16679953141967105  -0,055999664983616367  -1,260376718931726  45,55875  95,96756406250002  9,7963035917891  -0,6838090256823446  -0,048391977460181756  -66,49625  1071,5399859375011  32,73438537589336  -0,20586837593560833  -1,048853022940121  -14,19125  468,7745953125002  21,651203091572075  1,3331003441744842  0,3158765277701785
23  0,8391162109375  0,03003388402462007  0,1733028679065066  0,05982139112280604  -1,331153803360217  -0,200615234375  0,01661949644088745  0,12891662592888262  0,1871183684523792  -1,2791763539223022  0,3349853515625  0,004121655821800234  0,064200123222625  -0,12417585574490164  -1,4105798881590987  45,31625  101,7968609375  10,089443043969275  0,13674574078516075  -0,8034465860110851  -26,493125  741,0565542968757  27,222353944816668  -0,4132756173186027  -0,5682693392260014  -10,675  325,25695312500005  18,0348815667029  0,9618456182227894  -0,20582791007169066
24  1,1329052734375  0,001497847771644592  0,03870203833966103  1,3575560596624585  1,765561988491653  -0,14005859375  0,042245324707031254  0,2055366748466834  0,4426040603914753  -1,3134448633453046  0,2747021484375  0,004097646927833557  0,0640128653306002  -0,543733022296415  0,5616782477293931  10,428125  420,49674804687476  20,50601736190806  -0,20075788849096013  -1,4401128837064974  17,665  194,02347812500003  13,929231067255651  -0,0147252796667839  -0,9293691550151757  -66,646875  283,265029296875  16,830479176092254  -0,17940053425734995  -1,1985097113825995
25  1,4340771484375  0,012235652184486388  0,11061488229206044  0,16718411911592118  -1,4364568806742555  0,1090966796875  0,03002703907489776  0,1732831182628526  -0,14420964956974314  -0,9634914904882175  -0,0201171875  0,017475455999374386  0,13219476540080696  -0,04844004677861446  -0,8457346557325893  1,666875  202,05750429687495  14,214693253703189  -0,33718201576531703  -0,6851623918671823  -30,4175  974,7748343750002  31,221384248220005  0,4817175250167149  -1,0638701790975689  3,10625  2547,9883984375024  50,477602938704436  -0,061076953732924065  -1,6565392558522243
26  0,90767578125  0,15430824246406552  0,3928208783454178  -0,7404803342156235  -0,16689358360233397  -0,03938232421875  0,015334000223875046  0,1238305302575865  -0,3605859873383839  -1,2230079837859071  -0,0134130859375  0,04523589470386506  0,2126873167442409  1,2135656122122038  0,9424640848194317  -29,6375  923,6483593749992  30,39158369310489  -0,3615883736488017  -0,5100281999147063  -12,008125  1973,0166917968736  44,418652521174856  -0,30009527416870435  -0,8242036148750347  63,68625  211,4309359375  14,540664906994452  0,8082563651873123  -0,39816349918748184
27  0,34025634765625  0,21658365451693531  0,46538549023034154  -0,5437664173624005  -1,3017638022567375  -0,00298095703125  0,0458985737502575  0,21423952424857906  -0,17109848550976153  -1,4346749021141527  1,25876708984375  0,23716623317599278  0,48699715930998283  0,5625212462140914  -0,8440272543771332  -21,596875  1024,5194042968737  32,008114663267406  0,20650464626116005  -1,3323507936906431  82,49375  6815,2398828125  82,55446615909099  0,44213185477851785  -1,1680095953806104  -12,78875  3861,5914671875007  62,14170473351613  -0,8670055385547188  -0,46134976187439136
28  0,55892578125  0,00370155038833618  0,06084036808185976  1,1158106851813774  1,4424143357285253  -0,1443359375  0,01801938891410828  0,13423631741860426  -0,8100900151188671  -0,5406186709314564  0,72279296875  0,004887518072128296  0,06991078652202602  -0,5590495003501349  -0,18268001535594403  20,7325  243,96297500000009  15,61931416548115  0,4116862633551437  -0,9520671498150892  -41,579375  150,45897304687503  12,266171898635491  -0,23845663513096502  -0,3539049475070244  8,939375  294,086129296875  17,148939596863563  0,28442950889160795  -0,5035659082234782
29  0,83098388671875  0,029197008961439147  0,17087132281760783  0,31617112851374973  -0,8353301525667938  -0,1254931640625  0,01914218900203704  0,1383552998697088  -0,2860530729908174  -0,9664382950650663  0,44109619140625  0,010030498331785204  0,10015237556735838  -0,699158954040413  -0,7698998731202513  37,0  145,225078125  12,050936815243867  -0,1794275111090133  -1,1436673388065863  -27,40375  286,0834703125001  16,91400219677472  -0,005360976210746236  -1,0196787967996883  -6,803125  270,641357421875  16,451181034256326  -0,17589732022872254  -1,335565352486194
30  1,047939453125  0,017781420373916626  0,1333469923692193  0,6228711550271144  -0,7844865021731526  -0,173896484375  0,10985768685340883  0,33144786445745705  0,7985605036588491  -1,0294083109558176  0,208681640625  0,007584605360031129  0,08708963979734403  0,38672989600667945  -0,8500330285071498  -12,9925  2170,626740624999  46,589985411298414  0,12531670260829453  -1,6630945820148255  -19,540625  920,2969824218751  30,336396991433823  -0,34611306547113935  -0,824914746680665  -52,611875  523,7778355468752  22,886193120457477  -0,8254296554184851  -0,5290166845622379
31  1,3935546875  0,023849729299545288  0,15443357568723612  0,2607241463224617  -0,9901614560813612  0,186943359375  0,029623159265518215  0,1721137974292538  0,3555876130931121  -0,7264458425863496  -0,2156103515625  0,04137320759296414  0,20340405008987442  0,7283819462838811  -0,731533062650231  -16,99875  1126,3987484374995  33,56186449584557  0,04743644686353596  -1,3577298361983032  -8,58125  870,6317578124991  29,50646976194372  0,5142474878177862  -0,14312417003168942  -15,6025  2778,977071875  52,7160039444854  0,9489420403056833  -0,23740694473406787
32  1,131142578125  0,05567446556091307  0,23595437177749656  -0,5664149919255249  -0,2740342383025123  0,0243505859375  0,008054592156410216  0,08974737966319805  -1,6526626899211776  2,0265786859295574  -0,09725830078125  0,03570196229815483  0,18894962899713466  0,3255301608160518  -1,2485704816746694  13,64  1206,9041499999994  34,74052604667925  -0,9269277065274621  0,976707856439698  2,5875  2125,6779687499993  46,105075303593196  -0,7326112241198063  -0,8471297709505423  77,3825  148,66260000000003  12,192727340509178  0,9195941421898808  -0,23835612556715535
33  0,2215380859375  0,2482563187837601  0,4982532677100674  0,20088782397087465  -1,3073231802299161  -0,18873291015625  0,03570081993937493  0,18894660605413088  0,5148455720955336  -0,9807513440699118  1,147529296875  0,2783331550121306  0,5275728907100237  -0,2825372207074855  -0,7996178658909323  -53,005  574,8996625  23,97706534378217  -0,37473427287828603  0,05751876361742747  100,870625  4793,030801171876  69,23171817290017  0,1084592844267225  -1,3270696192285414  5,856875  6656,7740074218755  81,58905568409206  -0,4858830061471382  -1,0324487947864334
34  0,6948291015625  0,006854821419715885  0,08279384892439706  0,8755087223359117  0,44894335101379923  -0,25721435546875  0,008135232180356977  0,09019552195290505  0,013721102594998176  -1,4588491674390092  0,622333984375  0,01732348403930664  0,13161870702642023  0,47916034860121826  -1,0919827596650638  7,235  842,7486031249998  29,030132674946557  0,05090725371233901  -1,090445258119146  -22,82625  187,04668593749997  13,676501231583316  -0,767854118177032  -0,7623978628869601  -5,71625  586,2612046875001  24,21283140583728  0,3626202096368977  -1,1983348868437067
35  0,55997314453125  0,0036771564185619347  0,06063956149711123  0,9520208894819351  -0,5685654814024654  -0,095771484375  0,004310689067840574  0,06565583803319072  -0,4127088718026028  0,03342649642565654  0,691376953125  0,0025596478939056387  0,05059296288917697  -0,3835528234512343  -1,0146835929870428  23,813125  339,96816367187506  18,43822561072174  -0,0811208474798435  -1,217365304404275  -47,666875  177,05476992187494  13,3061929161528  -0,17276391360708276  -0,3795294116940875  -6,475  269,34734374999994  16,41180501194186  -0,16967117908527046  -0,9831918755092017
36  0,831884765625  0,017247537374496472  0,13132987997594633  0,097089195239506  -1,2726674859336589  -0,10443115234375  0,014548248499631882  0,12061612039703434  0,24556871512217507  -1,0945995143057412  0,2827197265625  0,019915797686576846  0,1411233421039087  0,21719691780946862  -0,5951355388189015  40,113125  187,48317929687477  13,69244971861773  -0,6211763138680031  -0,2067184793125887  -12,748125  1462,760582421875  38,24605316136392  0,6663691242280683  -0,8168149553930291  -39,580625  313,9865074218749  17,71966442746236  -0,5094389143034646  -0,3049973180336609
37  1,3205029296875  0,011896362996101377  0,1090704496923955  -0,4630623169754361  -0,5768470284480385  -0,1320556640625  0,020281789898872384  0,14241414922286474  0,5063409090878632  0,4341072999594302  0,18875  0,12583321962356572  0,3547297839533153  0,5951108674680999  -1,0238669462406071  28,114375  397,24156679687485  19,930919868307004  -1,0414802810934258  1,6973922134381967  -1,723125  2773,4200199218753  52,66327012180192  0,4693295108554552  -1,2476775697772677  -54,78375  456,3554234374997  21,362476996769352  -0,11934808544211799  -1,5223037158866906
38  1,367734375  0,01881679430007934  0,13717432084788808  -0,1650173833453469  -1,0141891105410938  0,18146240234375  0,029691476649045943  0,17231214887246327  0,6711235088816687  -1,0995681544664122  -0,0994091796875  0,015544850087165845  0,12467898815424291  0,26199226107838913  -1,1897911945092965  -11,57375  255,88159218750002  15,996299327891437  0,5723502481953605  -0,8431182448891144  -27,50375  970,9033453125008  31,159321964903228  -0,09085816488049817  -1,3080727727946744  39,80625  2307,3533984374985  48,03491853264143  -0,903893558431757  -0,3480464967472101
39  0,539326171875  0,2569288094997406  0,5068814550757806  -0,6110483698249702  -1,1154451142619397  -0,045068359375  0,005054564476013185  0,07109546030523457  -0,4344707948477091  -1,070547474553229  0,3003955078125  0,25152028343677524  0,5015179791759965  0,791674186308389  -1,0884535336531205  -37,363125  377,0304449218753  19,41727181974531  -0,5840490643009848  -0,6292895631991917  91,46375  2572,4908734375013  50,7197286412053  -0,27109451419436414  -1,471326020616731  67,805  301,258459375  17,356798649952704  -0,44402236183747207  -0,9870510703553212
40  0,38708984375  0,10062583861351014  0,31721576034855226  -1,1990076214784349  0,2002385332343084  -0,14039306640625  0,03363254114985465  0,18339176958046577  -0,43946754765795176  -0,8696327527499896  1,2074853515625  0,11573838236331939  0,3402034426094471  0,14550850515258024  -1,0553459149572424  -9,885625  513,3528949218748  22,657292312230844  0,37805197987662065  -0,7615619670998099  32,9725  9233,967525000002  96,09353529244306  0,7524421735297119  -0,7813403308812528  -31,909375  3475,812841796875  58,956024643770505  -0,7610213711510097  -0,5807100495673629
41  0,4926513671875  0,007788817286491395  0,08825427630710818  -0,3760137310854969  -1,2825648636429077  -0,06322265625  0,014618157052993776  0,1209055708104212  0,8789221037773246  -0,08069138100000695  0,7697412109375  0,02056794526576996  0,1434152895118577  -0,22232090099311708  -1,5986694327871747  19,54125  167,69407968750014  12,949674887328259  0,5891277082292624  -1,0570607468177995  -61,45  719,1325000000004  26,816645949857346  0,35610073085921917  -1,1224009176921852  -5,415  551,6712125000001  23,487682144051597  1,3420165114776679  1,351938077601134
42  0,71420166015625  0,019426521843671794  0,13937905812449658  -0,032717633760499035  -0,019170458793708267  -0,07652099609375  0,014768861836194993  0,12152720615646108  0,042935950708768794  -0,9103998929915789  0,45202392578125  0,03881563126444816  0,19701682990152938  0,624520006398212  -1,0177431535480193  43,165625  693,007998046875  26,325045072076797  0,27516409124120417  -0,9177178626777751  -45,836875  406,31647617187497  20,157293374158023  0,2185994245117992  -0,4324235007735946  -20,145  1280,5750687499994  35,785123567622335  0,7588628355208893  -0,11723176446364425
43  1,123173828125  0,0065901773929595946  0,08117990756929694  -0,06800998523516404  -1,0067987827986737  0,0071923828125  0,023292196297645566  0,15261781120709852  1,1425286151182237  0,15129085828838118  0,19224853515625  0,0028044395148754133  0,052956959078816195  -0,2850666183031316  -1,0553851570919288  11,106875  314,41471054687486  17,731743020551445  -0,2987080884404292  -1,3059966431952983  -21,9375  134,999140625  11,618913056951584  -0,03465394090681989  -0,6023173126296308  -39,4575  844,3179593750002  29,05714988389261  0,23101386355879433  -0,629703373737772
44  1,36412841796875  0,02008063966631889  0,1417061737057313  0,6382956215858326  -0,978197319953455  -0,01378173828125  0,048856927603483216  0,2210360323645971  -0,5567916236399105  -0,9753974411923538  0,00978271484375  0,01827451021075248  0,13518324678284835  1,1797600966095947  0,3287796095679596  15,7  2206,566796875  46,97410772835392  0,4908089640305623  -1,4643253968721401  38,24625  669,0269390624998  25,86555506967712  0,08206629258812605  -1,1985860160587012  -6,12625  223,4436703125  14,948032322432942  0,11454699803250869  0,08246788785034775
45  1,28033935546875  0,024843091791868215  0,15761691467564073  0,46423680991690336  -0,9643720827577238  0,044677734375  0,004291493892669678  0,06550949467573138  0,6456854311960746  0,5920008130128593  -0,1758837890625  0,061075166678428626  0,24713390434828772  0,6477738184253643  -0,47042080867202385  -57,1975  193,72700937499997  13,918585034945181  0,3019759453928554  -1,2956970434650965  -22,106875  943,1118980468747  30,7101269624024  -0,3168644835835846  -1,2725010454577819  77,148125  256,8747386718749  16,027312272239378  -0,4031760498182167  -0,42537261228916545
46  0,15275390625  0,6249819420337672  0,7905579940989574  -0,21131778303231566  -1,2352574074141482  -0,22616943359375  0,06485682236552237  0,2546700264371965  -0,6195919146945582  -0,7583280858593846  1,3638427734375  1,2645284301042572  1,1245125299898873  0,4034228013551064  -0,9285552660912053  -43,06125  1721,3885921874999  41,48962029456886  0,28683259286443835  -1,1629795622672607  88,12  37297,69856875001  193,1261208867149  0,517519032333735  -1,1954742221801562  46,668125  9063,809976171875  95,20404390661079  -0,5427372830014389  -1,025813403576759
47  0,45547119140625  0,030802799338102354  0,1755072629212317  -0,32440011271063185  -1,121812897226641  -0,35330322265625  0,023036607092618917  0,15177815090657454  -0,45283581579466775  -1,1096961846847846  0,5732958984375  0,1158239490747452  0,34032917752485636  -0,40885420980605497  -1,1984776513921125  18,54125  390,7259546874998  19,766789185082633  -0,32899275237426434  -1,5758494600757396  -16,56375  2844,6191390625004  53,33497107023215  -0,7893758962407755  -0,500784628569638  -31,6  647,4400000000003  25,44484230644789  0,3351753307294397  -0,9826394909144116
48  0,59391845703125  0,032239817017316826  0,17955449595406078  0,08633636663758675  -1,0650934865073334  -0,13669189453125  0,0032963060081005096  0,05741346539010261  -0,3661688834271329  -1,1927321175563796  0,6312060546875  0,030471954560279846  0,17456217963888926  -0,863022308274803  -0,5387046402729538  40,714375  62,68087929687503  7,917125696670164  0,23137176394973852  -0,7795602070609893  -64,824375  312,73411679687496  17,68429011289045  1,6359487172179685  3,2358156756503673  -16,670625  69,00233242187501  8,306764257030231  0,17962036852906374  -1,2130096154205463
49  1,05892333984375  0,011465157717466354  0,10707547673237955  -0,6895853735633619  -0,43642786365426733  -0,19157958984375  0,003825637453794479  0,06185173767805137  2,3422501254138055  5,120066222951463  0,23708740234375  0,017675825232267385  0,1329504615722239  0,0830258161063598  -1,5318759707296112  9,085  789,3079312500001  28,09462459706483  0,6321859866073596  -0,783382526037748  -18,6275  215,4840562499999  14,679375199578486  0,23657820014366143  -0,8374897793619458  -37,63625  376,40807656250007  19,40123904709439  0,4437912616095285  -1,1689608721743332
50  1,0644580078125  0,0063228618860244785  0,07951642525934173  0,07948549788865239  -0,09423701966882936  0,0518408203125  0,013496803307533264  0,11617574319767988  0,31674927078294474  -1,1451001656417215  0,18483642578125  0,015825919026136403  0,1258011090020132  -0,7699780987896653  -0,771048479225918  -17,685625  180,74761367187497  13,444240910957932  -0,7315029922419553  -0,859805588221775  31,95875  542,4500953124997  23,290558072156614  0,37944337783814497  -0,5752328050004287  -44,768125  405,01002304687495  20,124860820559107  -0,22418828319092396  -1,483255342245561
51  1,43929443359375  0,013615501374006267  0,11668548056209165  0,14034049200620535  -1,3825316094781737  0,11090087890625  0,013745950907468796  0,11724312733575813  0,32618139965078535  -1,0991703506366508  0,033369140625  0,01000796184539795  0,10003980130626985  -0,902496480297473  0,38232348296616125  8,7075  181,28928750000006  13,46437103989637  0,4489266953913864  -1,3228906681078356  -26,7125  1455,105703125  38,145847783539956  -1,0124104371072162  -0,7239723772854507  32,35875  2585,2123921875  50,8449839432318  -0,00349591003783011  -1,7361367462015778
52  0,8803515625  0,10222222409248348  0,3197221044790045  -1,261874578407961  0,9503626135483145  0,0010986328125  0,005280912518501281  0,07266988728834854  -1,757652324597105  3,608903442921786  0,07510986328125  0,08490959092974655  0,2913925032147302  0,2795259864193563  -1,2079845257036748  -10,878125  455,0365136718748  21,331584884201053  -0,8119259988810509  -0,6059622916016529  13,140625  1700,628544921875  41,23867777853547  -0,5214769217509423  -0,8184725757924709  67,630625  204,712663671875  14,30778332488562  -0,12850833184157787  -1,0916500245533682
53  0,25748779296875  0,1539364100158215  0,39234730789929156  -0,7485568599766486  -1,172997921105012  -0,25208740234375  0,04203188464045526  0,20501679111832585  -0,016070967086853353  -1,429976554840294  1,141923828125  0,2236798690319062  0,47294806166418124  0,5701957934440794  -1,2418104172214235  -14,44125  2787,5219390624984  52,79698797339199  0,2356371843205727  -0,9279268196730643  70,004375  11070,768691796882  105,21772042672698  0,3230690118091938  -1,5463419963304617  -9,87625  5578,879764062495  74,69189891857413  -0,19407353590369958  -0,7870130546270411
54  0,57328369140625  0,01791305429339408  0,13383965889598673  0,32680236649886957  -1,5428574483826631  -0,25873291015625  0,03423367483019829  0,18502344400155968  -0,8033952720687684  -0,3219403447611646  0,7284765625  0,04330337729454045  0,20809463542950946  -0,5739702996309098  -1,0925896522290144  18,579375  144,227488671875  12,0094749540467  0,5692571774115222  -0,5770106665976309  -40,98  1361,264053125  36,89531207518104  0,7822220071682665  -0,9080454802034588  -17,1475  164,7092593750001  12,833910525440018  0,8162737390928106  -0,42567055259820386
55  0,64323486328125  0,01930525862574577  0,13894336481367425  -0,2480929063183104  -1,2524514008699992  -0,04087158203125  0,01422776829600334  0,1192802091547602  1,1315882914349618  1,0742812207111916  0,4719140625  0,020280817651748648  0,14241073573206708  -0,13459950067749274  -0,9525632239249906  1,48125  171,52667968749992  13,096819449297602  -0,9076211460349121  -0,38792993854636393  -38,899375  983,9634292968747  31,36819136158275  1,0467309029187777  0,579303493856909  -17,979375  574,153598046875  23,96150241631094  -0,3055469714358406  -0,9710516197916466
56  1,0834912109375  0,01865569708347321  0,13658585974936502  0,03473503191820039  -1,0816941754488045  -0,0035498046875  0,007278423810005189  0,08531367891496175  1,8136486436098471  4,096712269134402  0,33438720703125  0,01937778040766716  0,1392040962316381  0,20900394639371866  -0,3723828210995248  44,72125  368,54518906250007  19,197530806395392  -0,35733237768914256  -0,9673266219945651  -2,46625  927,3362046874997  30,452195400126733  -0,3869148003983418  -0,5857270427307548  -53,446875  287,87846679687493  16,96698166430538  0,9502031847991848  0,0977228981107463
57  1,4342919921875  0,0050061869859695405  0,07075441319076528  -0,03379207373352744  -1,3181556877511333  0,0818896484375  0,11619766137599948  0,3408777807015287  -0,5935987295797657  -1,1349840425229196  -0,11931640625  0,011737777090072638  0,10834102219414693  -0,39987802619443885  -1,0310451124567799  -16,823125  446,53726992187467  21,13142848748931  -0,010299213751141938  -1,1967615567492753  -14,085625  319,94669179687486  17,88705374836434  0,06480769341486374  -1,1462842746828052  -2,779375  1686,5473011718764  41,067594294916724  -0,26919174214089875  -1,1060375039627415
58  1,185927734375  0,036320919179916374  0,19058047953533008  -0,042381215899533094  -0,9158883674119602  0,0541162109375  0,004060913586616519  0,06372529785427855  0,04567667988402613  -1,0816166329286114  -0,1569970703125  0,004668190264701843  0,06832415579209042  -0,05211475179365565  -1,0078366698836514  6,643125  222,933929296875  14,930972148419372  -0,1363138877990819  -0,8987842812561255  -33,994375  579,8571949218747  24,080224146005673  -0,17326222123431007  -1,2075973654836358  46,66375  281,0349828125  16,764098031582254  0,10491346637948455  -0,9002635139927588
59  0,36237060546875  0,5618979857623577  0,7495985497333607  0,3344931306065502  -1,3119033227303454  -0,13913818359375  0,0722554231822491  0,2688036889297636  -0,5789100197179983  -0,48723813695785445  1,13991455078125  0,9762942374885079  0,9880760281924199  0,16195848248183295  -1,2875550373435403  -64,27625  2825,123217187499  53,151888180830404  -0,8089189092267424  -0,008306953302207098  107,5825  15855,215928124999  125,91749651309384  0,2740324108272425  -0,8620191037070897  30,555  4291,213693749998  65,5073560277775  -0,9645400261312479  0,17865109541155721
60  0,64476318359375  0,010259557217359548  0,10128947239155482  0,1704492494959445  -0,5272211685908976  -0,27718505859375  0,024903207272291186  0,1578075006845086  -0,7230734438135854  -0,8541466607227153  0,46752685546875  0,06456959068179124  0,254105471569959  0,3179674997356775  0,09714485105452164  11,0375  314,8736718749999  17,744680100666788  0,3502406212848017  -0,09689876954376953  -29,66  3880,2522906250006  62,291671117614115  -1,1587463210758793  -0,0883010012980856  -17,37  572,6841156250002  23,93081936802416  0,1715682447885839  -0,6441342147858009
61  0,56224609375  0,010321903133392329  0,10159676733731408  0,4824951196398059  -0,2813893985707021  -0,1528662109375  0,007975484156608589  0,08930556621291076  0,6037583147781813  -0,6579443204077258  0,62109375  0,014325872659683228  0,1196907375684653  -0,38332276038685187  -1,0577849081890724  29,5  251,950234375  15,872940319140623  0,21119164361920648  -1,4790131597786491  -60,6875  232,64265625  15,252627847357976  -0,10181008183400576  -1,1437011106391022  -12,116875  550,1517699218749  23,455314321532228  -0,7007402545468286  0,12175522166777686
62  1,0973779296875  0,029192200922966007  0,17085725305928925  -0,347799192319827  -0,8821070065896781  0,08587646484375  0,01901359364390373  0,1378897880334281  0,23329963335478923  -1,4587335140584958  0,0402783203125  0,04891502377986906  0,2211674112066899  -0,45001903076735766  -0,9984286980434374  9,230625  81,03778867187495  9,002099125863642  1,2683921290006768  1,088099910042967  -7,054375  307,843488671875  17,545469177878232  0,16060476092256173  -0,13254579055952753  -54,691875  139,70306679687508  11,819605187859494  0,22599890388887617  -0,8960058978155292
63  1,2740576171875  0,007345330023765565  0,08570490081533007  -0,14392014839125306  -0,86730269081461  -0,02625244140625  0,030693407601118092  0,17519534126545172  0,1468988497742317  -1,5963568198774623  -0,22419189453125  0,013907447212934495  0,11792984021414807  -0,47756444565754647  -1,1244105847812214  3,45875  1490,0272046875004  38,600870517224095  0,14722847951768134  -1,202332641442167  6,841875  535,486598046875  23,140583355803177  0,42549057642073335  -0,9738837230364217  -10,71875  582,7516015625  24,140248581207693  0,2241068413822824  -1,1193243312403975
64  1,33464111328125  0,03746471726298331  0,19355804623673828  -0,03819355444151173  -1,2754861696630198  0,13034912109375  0,009974576348066333  0,09987280084220294  0,06507886190389839  -1,5430589989660914  -0,34024658203125  0,006227062195539479  0,07891173674137124  0,23123362556623978  -0,7140280445150355  2,735625  375,3442855468749  19,373804106237756  -0,4353647594682658  -1,2173117206729602  3,15375  256,42503281249986  16,01327676687379  0,10946762479821079  -0,006008903872999127  42,315625  648,4984667968746  25,465633053134074  -0,6780685690091486  -0,8700817675121
65  0,29471435546875  0,2711545853316785  0,5207250573303329  -0,03808205636689249  -1,5406081362297146  -0,1155517578125  0,020352789759635913  0,14266320394424034  -0,20880548581377956  -0,9634228651697407  0,8361083984375  0,6612944072484972  0,8132001028335506  0,5338924944860163  -1,2564930497175637  -53,8825  844,9890843750001  29,068695952433092  0,2392230656339815  -1,1450903376199455  115,51875  6964,267851562496  83,45218901600182  0,395989299403337  -1,1892999012482657  33,625625  777,7350386718753  27,887901295577535  -1,3413685721081063  1,3064983593688382
66  0,65124267578125  0,00948863088488579  0,09740960365839597  0,188154681743697  -1,0746175783243341  -0,234951171875  0,06926369967460629  0,2631799758237816  0,7204507936035908  -0,6065356121238157  0,80148681640625  0,16317179071307192  0,40394528183043793  1,6877582551512824  1,7782686005135533  -2,77  445,23178749999965  21,10051628515283  -0,602422020597292  0,22597560647503556  -11,86875  880,6887109374995  29,676399898530473  2,7367558011155317  7,598155774663256  -15,998125  1641,6736292968758  40,517571858353946  -0,05259875841188136  -1,1991831860199123
67  0,61912109375  0,01940830192565918  0,13931368176047598  -0,1887778462114104  -1,4739907721806418  -0,1172265625  0,008452657127380376  0,09193833328585185  -0,05623349625605105  -1,4003156739448754  0,779140625  0,012817369127273562  0,11321382038988687  -0,9780119104322247  0,2712233988380408  15,008125  314,2690355468751  17,727634798440402  -0,1992225297460735  -0,9457031303417844  -41,77625  1070,0447796875003  32,71153893792679  0,39632935983681683  -1,4809108200382446  3,11375  798,0168265625001  28,24919160900892  0,21732973118982366  -1,1973140441804093
68  0,66525146484375  0,012122064417600635  0,11010024712779093  -0,1662089254618495  -1,578845568896706  -0,06983154296875  0,004073529785871508  0,06382421002935726  -0,9141452280671105  0,12546064633451115  0,5083349609375  0,03688671233654025  0,19205913760230273  0,3310141411534168  -0,32759815081300525  31,04125  149,66493906250003  12,233762261156624  -0,054524791834722766  -1,1711495230142726  -68,19375  502,7178515625005  22,421370421151792  -0,7084326353553732  -0,7648023346519546  -15,998125  193,41589492187498  13,90740432006904  0,7055306194978724  -0,2551342861030599
69  1,04160400390625  0,014007381314039233  0,11835278329654624  0,15080247068343897  -1,4820986514346268  -0,01514892578125  0,023480772227048877  0,1532343702537028  -0,10681394108259225  -1,1624640903280774  -0,00488037109375  0,010919956558942788  0,1044985959663707  -0,08509551432777497  -0,7125236821907057  50,403125  877,3922949218747  29,620808478532027  0,1955577050550507  -1,0978423620962063  -10,438125  838,7474605468749  28,961137072754497  -0,2483615502552041  -1,515440070517755  -29,656875  687,4206636718752  26,218708276188497  0,5838650756079187  -0,24532472736751476
70  1,47162109375  0,008147987270355223  0,09026620225951253  0,11034847484258319  -0,3819977926476912  -0,13572265625  0,055460047340393094  0,23549956972443303  -0,17912147725405242  -1,1661515568628555  -0,26887939453125  0,07363985068202022  0,2713666351672958  -0,4828314293773107  -1,0620710399559747  8,570625  1133,291769921875  33,66439914690109  0,4577760765440541  -1,0646805621270936  15,116875  1420,876144921875  37,69451080624174  0,05932207359546176  -1,1390830304007349  -9,053125  782,4154980468752  27,97169101157231  0,9097075510387671  -0,23016258199757145
71  1,13675048828125  0,07582798559069633  0,27536881738987135  -0,23781438879587988  -1,3821220855801064  -0,0323583984375  0,001631393933296204  0,04039051786367939  0,5641317184222832  -0,4828335100947885  -0,11211181640625  0,017111204022169105  0,13080980094079  -0,4831528085777701  -0,8901314359913646  -13,92875  408,7071109375002  20,21650590328359  -0,1748686985000679  -1,2267153520446978  18,525  1607,2143750000002  40,090078261335435  0,43784377957731796  -0,7292474190768674  52,87125  61,015767187499975  7,811259001435042  -0,0568053024297098  0,7414436339111035
72  0,237041015625  0,17545925936698903  0,4188785735353254  0,41205730206566793  -0,8589277834280127  -0,19958251953125  0,0074830073058605165  0,08650437737976337  -0,3070815921773853  -0,7358513004503355  1,0576318359375  0,27369295814037314  0,5231567242618345  -0,02527171268130836  -1,615020375414411  -62,42875  1613,8713296875  40,1730174331914  0,34252279463003305  -1,1841231445547147  99,63125  4784,970195312498  69,17347898806665  0,23171245457853198  -1,2186319284541303  77,19125  1216,7657671875  34,88216976031594  -1,010651895564882  -0,6213298292517724
73  0,65643310546875  0,017513779848814012  0,13233963823743064  1,5212642370350922  1,7991032075591988  -0,43135498046875  0,009890335863828656  0,09945016774158129  -0,05062334135134789  -0,2584016935559066  0,64311279296875  0,05102821909785274  0,22589426530536966  1,5207578380516418  1,7509840325869126  -6,489375  456,11851992187496  21,35693142569585  0,028417192012542482  -0,7594309505421171  -29,501875  737,0733167968746  27,14909421687719  -0,16169517610825607  -0,9146154992967155  -29,058125  1077,2585355468748  32,821616894157955  -0,0712639318189893  -1,0042187251650219
74  0,37121826171875  0,01247702419161796  0,1117006006770687  0,29168023589687303  -1,1609017010840719  -0,14381103515625  0,002287409752607348  0,04782687270361034  -1,6017102802241499  3,4936516926755994  0,80561767578125  0,03204027616381646  0,17899797809979995  -0,513919534571612  -1,235883750799639  32,04125  614,0981421875002  24,78100365577432  0,06930181946052634  -1,118776517360683  -62,3025  1891,4369312499985  43,49065337805352  0,43202372056890875  -1,2241038201409633  -36,355625  1030,455444921875  32,100707857022016  -0,1562209973768744  -1,3630006300348603
75  0,956181640625  0,06515592393875125  0,25525658451595573  -0,20007959028199876  -0,764378042579799  -0,09611328125  0,004132553195953367  0,06428493755113532  0,6696958779310179  -0,635107803477521  0,10198486328125  0,051565619534254106  0,22708064544177714  0,2655690080923854  -1,4548804897029868  34,859375  999,423154296875  31,61365455458883  0,15113120057901747  0,94295042880188  -23,129375  1751,7188480468744  41,85354044817325  0,7078209986392145  -1,0782466839537013  -48,39875  876,2024828125005  29,600717606377394  0,3778183494604456  0,3376883977111764
76  1,34037353515625  0,04158373362421993  0,2039209004104776  -0,4935834759691896  -1,1371121559160855  -0,053408203125  0,027909293317794792  0,16706074738787324  0,7422487405166238  0,33958210119364196  -0,01352783203125  0,00700341116786003  0,08368638579757182  0,4800309747411528  -1,2622466371018206  13,595625  1985,1087074218767  44,55455877260908  0,796100377605324  0,06381800417796724  21,445625  324,50059804687504  18,013900134253966  -0,08009103317035797  -1,382847420211653  -63,77375  1310,7459203124997  36,204225172105254  -0,21067911760943742  -0,6130509653988665
77  1,4346875  0,04447978553771973  0,2109023127841886  -0,7528110654956951  -0,7124446819272992  0,204443359375  0,012978549003601087  0,11392343483059615  0,85344676517609  -0,7602569918842281  -0,1420751953125  0,010922938370704644  0,10451286222616164  0,0961472889926345  -0,5703661963148106  14,4125  1029,63734375  32,08796259892485  0,4501413870368611  -1,3860062393086665  -19,214375  909,0886136718754  30,151096392533976  -0,12379698692836842  -0,9401142292843905  38,3575  907,94906875  30,132193228339688  -1,3333220423688792  1,8783722510666223
78  0,39962158203125  0,3189478890597821  0,5647547158366915  -0,5105902502417012  -1,228835333166668  -0,17205810546875  0,031877166479825976  0,17854177796758375  -0,03212404179139363  -1,411697365381613  0,3615771484375  0,23328998563289638  0,4830010203228316  1,0375675860856735  0,11226136563611266  -53,7875  1161,4976562500012  34,08075199067652  0,025636746839781274  -1,5258351629871418  66,725625  2978,1691324218755  54,57260422979533  1,179356849195973  1,19844797057136  111,66875  925,6816796874996  30,42501733257517  -0,32828501741234833  -0,6403477302981515
79  0,46395263671875  0,1054320554435255  0,32470302653890604  -1,3470905660113501  0,7402800256893438  -0,31789306640625  0,04654411446452142  0,2157408502451991  0,07629145359396179  -1,5111048178327078  1,093330078125  0,3044235492706298  0,5517459100624397  0,2584725878796762  -1,465332311967043  -36,351875  643,655754296875  25,370371583736706  -0,09371026939550514  -0,8015388915389483  42,584375  11035,398154296887  105,0495033510244  0,8894836432209985  -0,7883195019772593  -7,7775  3690,0398687500006  60,745698355932994  0,4416513664720535  -1,0857985318104426
80  0,5561669921875  0,007789538884162903  0,08825836438640194  -0,37735932042139075  -1,2930822341347323  -0,3035302734375  0,01683678939342498  0,12975665452463309  0,2181880687380074  -1,4102349793768902  0,70253662109375  0,026285559052228926  0,162128217939472  -0,44686823833161055  -0,8542925889643262  31,9625  1046,928515625  32,356274748879855  0,27821706440844324  -1,077172769446619  -35,374375  1358,2483199218746  36,8544206293068  -0,5212099042004986  -1,0077872952818414  -37,88625  229,03604531250022  15,13393687420759  0,20986156484419743  -0,8766828623419913
81  0,59075439453125  0,03307568771243096  0,18186722550374754  0,3690190325082927  -1,1915121445064372  -0,1616455078125  0,010485100150108333  0,1023967780260118  0,6680011613882274  -0,5145322038188551  0,55468505859375  0,029366456860303876  0,1713664402976962  -0,23632522410319765  -1,0163092076980835  22,4425  234,42208437500008  15,31084858441883  -0,2770767226904587  -1,015227084077543  -76,3675  776,7828343750007  27,870824070611917  0,3056175295101453  -1,3575749414009586  -41,51875  638,1693359375  25,26201369522034  -0,3062847157588159  -0,8863735622017179
82  0,988564453125  0,03380381073951721  0,18385812666161158  0,5688984616823867  -1,0348423352696923  0,162685546875  0,023477479839324956  0,15322362689652322  0,8173151975698235  -0,441118133715495  0,03459716796875  0,03382796322703362  0,18392379733746694  -0,5624494053274938  -1,1465520070266417  -1,585  211,67488437500003  14,549050978500283  0,5965119001252616  -0,5682226113708317  7,965  2903,244321874999  53,88176242361602  0,938232387235103  -0,8310936492632401  -51,125625  590,8917574218749  24,308265207987898  1,1466056406225054  0,11715883328274446
83  1,55204345703125  0,012816953724622729  0,11321198578164209  -0,5180822696926324  -0,09780137227599628  -0,04640869140625  0,0972846974074841  0,3119049493154671  0,18570379581858662  -1,2764651373653941  -0,04156005859375  0,003506640022993087  0,05921688967678974  -0,1907972782350066  -1,3182679738313934  1,835625  616,2129417968749  24,823636756061248  -0,4443765619707677  -1,0750909375212976  18,1425  2924,219928125  54,0760568840314  -0,319670679284535  -1,5434809845143356  -23,090625  1236,0444042968745  35,157423174869834  0,6055308440258784  -0,41906950523104713
84  1,25581298828125  0,04368498050570488  0,20900952252398664  -0,8704099151514088  0,021653272917244948  0,1492724609375  0,01893461487293243  0,13760310633460435  -1,2058931677119444  0,23645132969713867  -0,14221435546875  0,001389605396986007  0,03727741135038761  0,5023201203645211  -0,7640301642553022  11,436875  895,4095699218745  29,923395026665585  0,20918466917492903  -1,4006726449446545  -3,81625  1256,1427203125008  35,44210377943867  -0,5699531108208574  -1,2863181382561737  89,025625  808,1990699218754  28,428842219159673  0,015499603529731771  -1,2654359216865652
85  0,05685791015625  0,3107523213565349  0,5574516314053937  0,061425703949354586  -1,307720886896193  -0,16416015625  0,008463729619979862  0,09199853053163329  0,20243395423893742  -0,6665655114340838  1,0555322265625  0,6761388974428171  0,8222766550515812  -0,06221992242608642  -1,3924414882596916  -37,2875  609,5652343750002  24,689374928802877  0,10841487848809997  -1,5954183073516734  114,515  5906,75305625  76,85540355921631  0,5707833657907289  -1,1398812511593743  64,4675  2034,2826156250005  45,103022244911706  -0,06816673696660365  -1,3654522546865369
86  0,5838037109375  0,03192712619304657  0,17868163361981715  0,17043898699923093  -0,39897098868833236  -0,55479736328125  0,015262417048215862  0,12354115528120928  1,4251737790827008  1,1590202221620718  0,6374267578125  0,06863119542598721  0,2619755626503877  0,5255300003139907  0,18565841419315765  -9,73  421,4636625000002  20,529580183238046  -0,01901009063376198  -1,5809758244784822  -21,460625  1856,7498167968752  43,09001992105452  -0,006850819630439803  -1,3487254027596942  -5,1525  1175,92815  34,29180878868888  -0,43600808229862426  -1,1291326213207284
87  0,4571875  0,008053404712677  0,08974076394079226  -0,060542285108979875  -0,976604653783073  -0,26480712890625  0,006023260802030569  0,07760966951373113  0,3038636100069679  -1,3742418079417682  0,8471533203125  0,009474099659919738  0,09733498682344256  -0,6100044659177117  -0,7548439153364983  43,794375  275,240648046875  16,590378176728674  -0,47182901821095946  -0,8028337582963259  -80,015  824,4465718749992  28,713177669408157  0,31319645141437896  -1,141468109074197  -52,893125  148,145491796875  12,17150326775107  -0,5603404628895955  -0,8164773208237532
88  0,73066650390625  0,012370665901899341  0,11122349527819804  -0,2745565177749411  -1,3072398546661506  0,004150390625  0,027556551694869993  0,1660016617232189  -0,09621097348334551  -0,532499078326266  0,24115966796875  0,04286031758189202  0,20702733534944612  0,43595838844100054  -1,0109906665558073  1,74625  246,7359234374999  15,707830004093497  0,40713575835888594  -1,0124892147158826  -58,955625  422,80447617187485  20,562209904868563  -0,20602492571711495  -0,9175791155009878  -71,91125  318,9564984375001  17,85935324801825  0,10976520717240594  -0,9791564890651276
89  1,266943359375  0,039952882528305034  0,19988217161194  -1,156885226146077  0,32551656139698704  0,09260986328125  0,028530412977933888  0,16890948161051791  0,26960960258382666  -1,2395895141677928  -0,18697265625  0,01665345158576966  0,12904825293575137  -0,4360352389401554  -1,021290248004379  8,3275  1036,0070406249997  32,18706324946406  -0,45586314781286447  -0,1647024186121513  36,12375  1078,0850765624994  32,834205892064745  -0,14651168623656224  -1,3064744109986028  -65,895  676,1995218750001  26,003836676056096  -0,059359557581084035  -0,5572235310881686
90  1,4883251953125  0,023887860035896304  0,15455697990028242  -0,7225830408299734  -0,66076077532859  0,38132080078125  0,0421557496726513  0,20531865398119895  0,027166542327051374  -1,5405582595348077  -0,12395263671875  0,013609521740674969  0,11665985488022419  0,40103646971737  -1,4779924712393573  11,165  687,7563687499996  26,225109508827597  -1,5892280029693933  1,9514087594710565  -15,8175  629,5329437500003  25,090495087781754  1,2385177281181883  1,5565475894548895  47,781875  5350,093319921874  73,14433211071022  -0,5350196032840149  -1,3538011206979008
91  0,5725732421875  0,29855794503688793  0,546404561691141  -0,695470718378059  -0,8767412989649657  -0,01393310546875  0,015464668577909468  0,12435702062171426  -0,6194451556418749  -1,0388193637871297  0,1143603515625  0,1646780218839644  0,40580539903254664  1,1247273738177146  -0,04142377672725006  -46,975  1035,6221093750005  32,18108309822714  0,08953286704667858  -1,4395542757739141  61,898125  1403,5162230468754  37,46353190833555  0,5663124233815509  0,5662628497360833  102,39875  644,9720140625002  25,396299219817447  -0,239874505487981  -1,0711531851603973
92  0,35304931640625  0,26742679845690726  0,5171332501946739  -0,6393310131520915  -0,6684436657634771  -0,38959228515625  0,0768080578505993  0,27714266696161977  0,6489142492198618  -0,5595212190542358  1,17943115234375  0,4127664427459241  0,6424690208453043  -0,11975593570569372  -1,5284678719902203  -45,573125  1669,823441796875  40,863473197916925  -0,28523295737674015  -1,3705576146160576  58,0325  16041,586834375004  126,65538612461376  0,3672103898688954  -1,4085180537473136  17,084375  1622,4732324218726  40,279935854242275  -0,1977266095996002  -1,0597938961018727
93  0,61410888671875  0,0007529901206493377  0,027440665455657917  -1,032696376753741  0,5311607477151719  -0,40973876953125  0,009539144390821456  0,09766854350721862  -0,5145398102253786  -0,6753104134504584  0,60322509765625  0,007958281868696217  0,0892092028251358  0,7970017615805186  -0,3851256348043206  22,871875  347,8029980468751  18,649477152104694  0,39427829049624524  -0,33198733360593513  -16,68125  228,07347656249985  15,102101726663738  -0,2996143178215001  -0,975598203087916  -15,66875  381,34199218749995  19,527979726215918  0,23909806231293387  -0,7224030492914135
94  0,4792529296875  0,008512018895149229  0,09226060315838625  0,61757354807835  -1,0884303174364425  -0,1900244140625  0,009780553841590886  0,09889668266221514  0,9412041507399344  0,41364418960980043  0,66031494140625  0,02859756276011467  0,16910813924857274  -0,1349627041203935  -1,0965292661946322  39,18  415,7281468749999  20,389412617213864  0,5330998748213318  -1,0694758390964016  -72,089375  481,86197304687533  21,95135469730457  -0,41662795662155044  -1,1577630756720272  -45,848125  273,49806679687515  16,537776960549298  0,08194896097603623  -1,1003643022070289
95  0,9225732421875  0,02008625628948211  0,14172599016934795  -0,20589825234160064  -0,8787376476552211  0,00510986328125  0,02566215664744376  0,16019412176307768  0,2587085793960952  -0,9976687619614335  0,239052734375  0,010933112764358517  0,10456152621475319  -0,5167673408173383  -0,6234087862912383  -10,500625  995,3262886718751  31,548792190381473  -0,04053899180602005  -0,3804491835174155  -23,1525  293,79096250000003  17,140331458288664  0,2984027356820718  -0,9907455396757028  -30,43  284,2391625000001  16,859393894799425  -0,2215689758127936  -1,1540914347478952
96  1,4126513671875  0,030275003409385694  0,1739971362103  0,9125851516870157  -0,5809779263664274  0,0884228515625  0,015897087311744693  0,12608365204000355  -0,597757973049932  -1,0298343812446045  -0,14310546875  0,0028280993938446046  0,053179877715585286  1,5405360154489913  2,04030870924627  -7,65375  178,8262046875  13,37259154717215  -0,06925137436405934  -1,2947984752227437  23,929375  160,432394921875  12,666191018687307  -0,9384447612266515  0,43083809363435854  -70,961875  1461,3928042968746  38,22816768165687  0,6131770965351281  -0,4298981813848268
97  1,4253564453125  0,06609556033611297  0,25709056835308636  -0,3054389704389212  -1,4080827884657117  0,279580078125  0,0034272834300994857  0,05854300496301403  0,9154615840900158  0,04144574495467035  -0,2069677734375  0,00904512360095978  0,09510585471441693  -0,03400963743264994  -1,175442709892884  21,785625  210,858457421875  14,520966132522828  0,5687516875827016  -0,5036424345686212  -33,925625  914,0373980468748  30,23305141805694  1,0692860599221896  -0,13186493277520306  72,48375  708,6829390625004  26,621099508895202  -1,034387666484052  0,1272186832782798
98  0,17644775390625  0,31824374777674674  0,5641309668656267  0,02891304017074799  -1,4169397195764  -0,10444091796875  0,0597307137191296  0,24439867781788346  -0,217748590597386  -1,2846112419473548  0,7179833984375  0,8772260749578474  0,9366034779765915  0,35961888870411907  -1,5023702973154809  -31,385625  852,0705511718743  29,190247535296344  0,23323319256938388  -0,27469552525132324  122,336875  7097,435148046876  84,24627676073807  0,5023699175569794  -1,1550001157482535  69,769375  5288,210444921874  72,72008281707244  -1,4017567002782931  0,48767316045982634
99  0,61466552734375  0,010777976578474048  0,1038170341440847  -0,043070882502033274  -1,1793927626356233  -0,404150390625  0,09487454414367681  0,30801711664074255  0,6385272728744906  -0,825424766244073  0,7766943359375  0,11546970989704136  0,33980834288910766  1,2003566942834083  0,5312463978306798  -5,5975  196,66541562499984  14,023744707637823  -0,2789660137840152  -1,1336650934298362  1,468125  1244,2136324218754  35,27341254290369  1,0056525426391196  1,4078250853803524  -3,854375  3017,3860980468767  54,93073909976887  -0,4056353729829959  -0,20887623759472618
100  0,5727197265625  0,009659000658988955  0,09828021499258614  -0,6020141138140439  -1,1883302971394183  -0,29862548828125  0,00671425110697746  0,08194053396810067  0,4606311034995451  -1,2804602082265921  0,78159423828125  0,010676804894208906  0,1033286257249602  -0,13382711453405094  -0,9991365190982213  14,55375  288,0182046874998  16,97109910075066  -0,21963799806642156  -0,19588091599187907  -46,273125  1402,0051292968753  37,44335894784114  -0,24604436967598386  -1,7064197213380454  -13,0825  145,41288124999994  12,058726352728963  -0,27844639645977287  -1,4263678925701806
101  0,5697802734375  0,01475419924259186  0,12146686479279796  0,2603819181360195  -1,2273812461191091  -0,18594970703125  0,0029434303939342497  0,05425339062154779  -0,6471829006982424  -0,4488998297823583  0,52198974609375  0,03614402562975883  0,1901158216187144  -0,5040994702413562  -1,0934300194555984  2,985625  87,46381679687497  9,352209193387141  -0,6188546133755106  -1,0662782096386738  -90,7  782,5287499999996  27,973715341370006  -0,0755007989878636  -0,7219803434636574  -14,5675  472,0211468749998  21,726047658858704  -0,4605093138804268  -0,6910594311318956
102  1,01024169921875  0,049962448328733436  0,22352281388872464  1,276104123456658  0,38530494127674064  -0,017890625  0,006665086841583251  0,0816399831062161  0,0820764216222701  -1,2520755975513391  -0,126572265625  0,07189431824684149  0,2681311586646384  0,28251669235681337  -1,3735323763293505  9,353125  167,46104492187496  12,940674052068346  0,046246676861307214  -1,132662646760199  -21,1525  734,1421343750002  27,095057379068237  1,2849859222293742  0,5101453991824925  -62,93875  122,80671718750001  11,081819218318804  0,5559234595683376  0,5261778244830508
103  1,53329833984375  0,0038696252048015635  0,062206311615474866  0,02943409338102525  -0,8953917434074485  0,088232421875  0,05695739507675169  0,23865748485382077  0,36494446677070314  -1,128628428024007  -0,3337646484375  0,051162754893302916  0,22619185417097346  -0,5487272404578941  -0,904622161784423  14,570625  605,414894921875  24,605180245669306  0,20362954149194068  -1,4630870827629399  6,035  1225,7391656250006  35,01055791650571  0,09808131417614595  -1,3288826757553003  -11,30375  5835,160939062498  76,38822513360614  -0,09028722761002851  -0,8520452140300123
104  0,9738427734375  0,07767838957309724  0,2787084311123315  -0,6267025776181641  -0,1483073102882173  -0,11691650390625  0,008179064863920213  0,09043818255537986  -0,9452708054352857  -0,6727206891380382  -0,33677001953125  0,013614062184095383  0,11667931343685299  0,81450502079185  1,1766477106366846  16,2075  764,8281937499997  27,65552736344038  -0,1977530505785967  -1,3467683436369204  37,618125  2605,0358511718764  51,03955183161267  -0,48410358574258194  -0,9294333986907035  77,459375  396,360810546875  19,90881238413972  -0,8286471249528181  -0,3487769783967276
105  0,1215625  0,4214030345439908  0,6491556319897339  -0,0564044338850396  -1,549953878536957  -0,18892822265625  0,016972433775663372  0,1302782935705844  -0,14797646757107252  -0,9189962535917338  1,29799560546875  0,47177581560015697  0,6868593856097163  0,08192836518941772  -0,9410628476827756  -50,381875  746,4643667968751  27,32150008321057  0,9056613332400246  0,1670805801855635  118,8725  11251,152337500003  106,07144920995472  -0,05048481186660587  -1,0763080116298238  14,098125  2066,942988671874  45,46364469190601  0,7382076911755967  -0,7553476490328888
106  0,6120751953125  0,0015224061250686644  0,039018023079964784  -0,6035923387848123  -0,6430673224478216  -0,45536376953125  0,03516911990046499  0,18753431659423028  0,0873742576796888  -1,1911019565426968  0,688759765625  0,011174994373321536  0,10571184594605061  0,31946000592522744  -1,181552239454012  24,926875  403,2830511718751  20,08190855401635  -0,20724673448794695  -1,2180489340394465  -26,491875  133,16270742187496  11,539614699888162  -0,3467880746177978  -1,084726484980178  -18,080625  708,2016636718747  26,612058613941816  0,8157559513116089  -0,7061788254494865
107  0,4914404296875  0,004724589371681213  0,06873564847792747  0,6123886277994811  0,7918127281891323  -0,1681103515625  0,003976482367515563  0,06305935590787114  0,25848145451095145  -0,7029175531630485  0,66922119140625  0,029107473677396772  0,17060912542240164  0,7479021573255284  -0,7880313028387511  36,419375  343,7965074218752  18,541750387217363  -0,8852509841954085  -0,6262404801943595  -76,925625  845,1798980468752  29,0719778832964  -0,22326941179794585  -1,2708911172037427  -21,10625  298,99925781250005  17,29159500487159  0,07778226552385868  -1,626077296982528
108  0,8502001953125  0,013284468865394604  0,11525827026896857  0,5690447596852003  -1,0186138733962413  0,01058837890625  0,003645287340879439  0,060376215026113046  -0,5099097276478672  -0,9405444618642389  0,198515625  0,018247545099258442  0,1350834745602083  0,36360707563075567  -0,8756223411686004  12,98375  479,0428609374999  21,887047789446157  -0,3796859106013561  -1,2847605344857713  -35,0225  569,7955875000005  23,870391440024616  0,4589810210222542  -1,3475636611395703  -39,435  360,77132187500007  18,99398120129111  0,11065874931852346  -1,2470011707166444
109  1,4801416015625  0,01397843387126923  0,11823042701127841  -0,6904255601561335  0,8676241805286051  -0,13212158203125  0,03588905221819878  0,1894440609208924  0,2782630669349006  -1,1060793251796086  -0,17540283203125  0,05188907191157341  0,22779172924312552  -0,5692832441867263  -1,132112922451596  10,44375  560,7632421874999  23,6804400758833  0,24574062510062178  -1,5033588945251763  8,065625  1537,6171386718759  39,21246152273376  0,08104670903764032  -0,9007896253884957  -37,86625  474,44453281250003  21,781747698761457  0,5637954378342007  -0,734658064729969
110  1,30259033203125  0,050924294108152385  0,22566411790125693  -0,5342552314754322  -0,9328498254196007  0,0582275390625  0,011025497317314148  0,10500236815098099  0,26191509398061297  -0,7143376171636984  -0,132392578125  0,0202051914691925  0,14214496638710955  -0,35630048042918383  -1,262371904383772  3,955625  106,23931992187505  10,307245991140167  -0,7908779941664821  0,0654763283955333  -18,4275  895,1135718750002  29,91844868764088  1,2416236137756513  0,4047948556265868  78,928125  471,9914355468749  21,725363876052224  -0,22419866867578206  0,3219983169661802
111  0,032412109375  0,35037115588188184  0,5919215791655866  -0,04268844253794181  -1,5997911201866823  -0,20025146484375  0,008179584568738936  0,09044105576970525  0,18726871010582094  -1,4135783378078846  0,69383056640625  1,0777367618739604  1,0381410125189932  0,6404375273108165  -1,2531723615409067  -23,220625  1744,337535546875  41,76526709536137  0,0682756114145189  -1,2878438521151485  153,76625  9936,029032812494  99,67963198573966  0,45191093546863764  -1,4808178111797716  61,87875  1860,8988140625  43,13813642315231  -0,8351964615681957  -1,0153529178990903
112  0,68005126953125  0,023860977286100375  0,1544699883022601  0,7359547873227891  -1,1686366505389265  -0,3915380859375  0,028507774615287793  0,16884245501439438  0,2766942403758676  -1,2616728248204925  0,94252685546875  0,2635791481673719  0,5133995989162554  1,4137384993513842  0,7799176356536375  -5,463125  727,1952417968749  26,966557841090413  -0,6793302757730931  -0,627339547406518  -26,0  2714,176875  52,097762667891985  1,1709582374155674  2,18074385000953  -16,985625  1618,3173324218747  40,22831505820092  0,3797137772991971  -1,1722204844828295
113  0,414638671875  0,005828990364074708  0,07634782488109736  0,5482385780296161  -0,8486380605556754  -0,25010009765625  0,007345609778165818  0,08570653287915582  0,257238437122679  -1,256949770709557  0,78556884765625  0,01826428973078727  0,13514543917863922  -0,3110316318905337  -1,1649564424636636  27,53  275,5298812499999  16,599092783944545  0,5276160293972554  -1,0457653107501883  -60,194375  1366,9380386718756  36,97212515763566  -0,2710896931423049  -1,4586275519280492  -18,34  860,7022125000002  29,33772677799015  -0,2264983095583611  -1,472439837871871
114  0,752314453125  0,009542424058914182  0,09768533185137972  -0,26237833995937276  -0,9845290138826703  -0,22169677734375  0,011816302841901778  0,10870281892343812  -0,3168549016768743  -1,203306546173375  0,29186767578125  0,00935580789446831  0,0967254252741662  0,40697698742061444  -0,6701960526202475  -5,43375  561,3798296874998  23,69345541890207  -0,31702501782739423  -1,2868435823306388  -54,56375  699,3061703125002  26,44439771128282  -0,057602079177882556  -1,0275578055438404  -44,864375  184,35094179687505  13,577589690253387  -0,11829260666832513  -0,6643335179117313
115  1,0820654296875  0,01381289365291595  0,11752826746326157  -0,3051704172557905  -1,4823406636447942  0,0414013671875  0,02417112491130829  0,15547065611011066  -0,9177278209046004  0,18086407471344312  0,01526123046875  0,03719688474535942  0,19286493912932806  -0,8233031674489726  -0,6144732532043276  16,601875  894,7312230468748  29,912058154645173  -0,32797170872729553  -1,4452793903096712  -14,546875  331,023779296875  18,194058901104913  0,14292723520824704  -0,8326495443731696  -25,58875  514,2706390625003  22,677536000688  -0,5327804232289671  -0,6248651156977765
116  1,48487548828125  0,02046115562319756  0,14304249586468198  -0,6655910293666185  -0,9483307443182607  -0,305927734375  0,013252371168136599  0,11511894356767091  -0,5717251567527335  -1,379746882890367  -0,20531494140625  0,004941195791959762  0,07029363976889917  -0,560872595516242  -0,9390353930507018  -7,72375  573,7725921875003  23,95355072191804  0,25898375616443275  -0,6513309167568875  -0,7525  701,1497593750001  26,47923260547783  -1,34642937655452  0,24672291873361685  4,011875  850,9906792968745  29,171744536398137  0,09995071581051397  -1,638539674776058
117  0,93570068359375  0,27438736516833306  0,5238199740066554  -0,6295756182435319  -0,7523113051999735  -0,00364501953125  0,008362530773878095  0,09144687405197673  -0,04177280747767949  -1,0538804197927363  -0,1410009765625  0,021055642867088324  0,14510562658659493  0,9565068738678743  0,07791387125078586  -12,31  387,381790625  19,682016934882462  -0,4131454823137168  -1,2384744818078544  30,114375  1777,1851605468753  42,15667397396141  -0,7022022383759133  -0,6359376147919455  59,501875  308,0162074218748  17,55039052049483  -0,4581717456095243  -1,2215976588832411
118  0,0256396484375  0,4444491564989091  0,6666702006981481  0,01543643919006364  -1,1516654674153544  -0,45796875  0,04127766218185427  0,20316904828702198  0,00047282677429130596  -1,3774946192598145  1,25997802734375  0,7816312440097337  0,8840991143586412  0,23361361886818144  -1,5023843901406486  -66,109375  3854,471669921875  62,08439151607975  -0,5117729898310688  -0,8806889086154328  134,268125  34710,43900742187  186,3073777589655  0,1188502927739318  -1,3310169842472825  47,29875  7384,243482812501  85,9316209716336  -0,15026120401569645  -0,9255627402215509
119  0,431201171875  0,0029498171806335446  0,054312219441241254  0,12699365889785702  -0,7400600703699842  -0,4810546875  0,008137795925140379  0,090209732984531  0,49199144386613464  -0,8326610732395059  0,71664306640625  0,024903589075803746  0,15780871039268948  0,23891784693850177  -1,1695688340945825  54,290625  811,0562011718752  28,47904845973396  -0,4857541904661865  -0,9875929545534796  -19,229375  1253,182738671875  35,40032116622496  -0,37080139284118085  -0,3808235748416262  -47,64625  430,8429859375  20,75675759692491  0,6816340022320075  0,26036256859733964
120  0,48413330078125  0,008973131769895554  0,09472661595293877  0,48961045658133284  -1,1553335559046292  -0,234931640625  0,015952152109146123  0,1263018293974641  0,14377327208950252  -0,9621170312374545  0,68168701171875  0,05021718823313714  0,22409191916072552  -0,55712335653359  -1,0960861299487792  16,225  799,4595312500007  28,274715405287473  -0,8793359908268683  -0,42026548414285214  -114,604375  645,0507855468746  25,397850018197893  0,7747888260526243  -0,9592413922251541  -29,533125  1104,7471449218758  33,237736759922086  0,03766857540530514  -1,4222083187164698
121  0,8535205078125  0,015386687493324279  0,12404308724521604  0,18733053392399407  -0,9851519369277657  -0,0902197265625  0,0117245643377304  0,10828002741840437  0,5626335280651334  -0,7598995806342774  -0,029208984375  0,025209828042984  0,15877603107202296  -0,25242762905247074  -1,0674201968155927  17,28125  54,7562109375  7,399743977834639  -1,053869640648717  -0,20738838427108597  -54,70875  1778,0816578125002  42,16730555551896  0,4051533870012821  -0,6348559056166416  -58,226875  345,1762230468748  18,578918780350882  0,3305549317697644  -1,3847892660093957
122  1,40171875  0,012126042032241824  0,11011830925074097  -1,1416793321594911  0,36052397699271177  0,0384326171875  0,0087857784986496  0,09373248368975187  0,42584671858804013  -0,5379326753033187  -0,16772216796875  0,003793581122159959  0,06159205405050199  -0,7189180916809756  -0,6045691415447827  -8,0125  382,1089843749999  19,547608149720006  -0,3035103617430859  -1,1443470089553829  29,43875  843,6662484375  29,045933423415747  -0,37188359235500706  -1,5077307400305542  -44,625625  1720,137773046875  41,474543674968565  0,33409248752797577  -1,3701231111849044
123  1,1963232421875  0,032176309847831715  0,1793775622753072  -0,2018105545338523  -1,39387614796092  0,02802734375  0,030927091836929335  0,1758610014668668  0,7236977042315335  -0,7635597716031337  -0,19267822265625  0,003335121029615402  0,05775050674769358  -0,3649647961011795  -1,546563337357254  19,9625  241,39351562499994  15,536843811566104  -0,4746748260757859  -1,097881292219425  8,95  963,01640625  31,03250563924866  1,3026810981108616  0,5106408496152892  71,515625  607,427060546875  24,646035392064075  -1,3164836111898581  0,9160378162610359
124  0,39667724609375  0,24493949925303457  0,4949136280736615  -0,23675858328589514  -1,4849886726839079  -0,171875  0,026671472787857056  0,16331403120325289  0,2454009462973546  -1,379844641297585  0,60772216796875  0,3688241885364054  0,607308972876579  1,2849606780878633  0,5791122689502659  -32,223125  1203,9376761718754  34,69780506273956  -0,00714909557094839  -1,491843352486149  110,10125  3648,6582640624997  60,40412456167625  0,9451122322915504  -0,16071099119180365  75,008125  1504,3749730468749  38,78627299763249  0,5245077583714353  -0,8049994157886928
125  0,53295166015625  0,02095173889994619  0,14474715506684818  0,3836143309216951  -0,7502052615351769  -0,3251171875  0,05339188084602352  0,23106683199027833  0,5248207499274401  -1,5561892364339693  0,90200927734375  0,3123626037299635  0,5588940899043069  0,917850194178275  -0,7199395651195548  -4,0575  632,4146625000001  25,14785602193555  -0,23437854445488604  -1,1955835434766735  -0,98875  5319,961123437499  72,93806361178983  1,4397628505984497  1,1406951415297275  -10,893125  1213,654944921875  34,837550788220966  0,18982514224111005  -0,4967674538368856
126  0,556982421875  0,00233743190765381  0,048346994815125895  -0,39999047907778307  -0,3804400793371703  -0,3403369140625  0,009367669796943668  0,09678672324727017  -1,3123387436941334  0,12866945711161293  0,73990966796875  0,0020847905337810515  0,0456595064995347  -0,19043491264709517  -0,7476636776472887  26,3575  33,882428125000025  5,820861459011031  -0,2734230047963651  0,23040628306731126  -55,958125  1015,7432074218752  31,870726496612455  0,12239438209009902  -1,546283799380519  -26,93  88,9297875  9,430259142780754  -0,16552256723421668  -0,9407054177933656
127  0,67312744140625  0,012587340658903136  0,11219331824535335  -0,19169040069400037  -1,288414636219553  -0,1562890625  0,019138792419433587  0,1383430244697346  0,7134582049622455  -0,9683401874368078  0,44910400390625  0,0494392650783062  0,22234942113328338  -0,45754261061909884  -1,4468070040528231  10,454375  55,891473046875014  7,4760599948686215  -0,7888917562307358  -0,37993725694576197  -75,39125  202,66786093750005  14,23614628112187  0,4360823713845198  -1,1108273981343062  -25,105  874,4271781249994  29,57071487341825  0,7683808136053564  -0,5165351921182806
128  1,0868505859375  0,07567127778530121  0,2750841285594304  0,26173913707075297  -1,2129545468352294  -0,0004833984375  0,00442876455783844  0,06654896361205365  -0,6860764771220786  -0,415369074761867  -0,099169921875  0,004632384777069093  0,0680616248488757  -1,2635575578793572  3,2973123832081193  2,16  189,7765093749999  13,775939509703138  -0,3826391409448242  -0,7457488324133612  -11,571875  1370,005576171875  37,01358637273447  -0,04141539091733664  -1,14118755621529  -56,464375  280,8020511718751  16,757149255523004  0,2983593855233696  -1,50362567319328
129  1,436787109375  0,01999222002029418  0,14139384717976303  -0,06274416170913243  -1,504936753620298  -0,1059375  0,07269965014457704  0,26962872648250413  -0,4602739297333299  -1,3912021059607778  -0,34469970703125  0,06231527912020684  0,2496302848618469  -0,2906149981962402  -1,1090949505907144  0,27  429,05342812499975  20,713604904144518  -0,273751915707633  -1,2120812495054112  -3,07125  1798,0266421875015  42,40314424883491  0,31594001490835816  -1,2193023373717902  -6,68125  1496,6440234375002  38,68648373059382  -0,29814634843243043  -1,3788968081748063
130  0,83633544921875  0,0839539726436138  0,2897481193098823  -1,2507651224985388  1,0003954091445957  -0,0326318359375  0,026683645510673523  0,16335129479337934  -1,4442666703116316  1,5003695032278808  -0,27892578125  0,07737981376647948  0,27817227354012025  0,8762099057237404  -0,3854347043308781  -17,709375  1069,7558886718753  32,707122904221876  -0,8102305223964008  1,2852641016319648  101,605625  3335,287241796874  57,751945783643286  -0,8203875483754698  -0,5078634862252431  76,995  637,8686468749999  25,256061586775555  0,5685912494786207  -0,7607669834487449
131  0,08026123046875  0,3329044024646282  0,5769786845842992  -0,42893981129199005  -1,2942776040357753  -0,27529052734375  0,14897965323328968  0,3859788248509103  0,5556110179207018  -1,1255349895230318  1,418115234375  0,5473273789882659  0,7398157736817091  0,08490414310786867  -1,365812547851039  -52,00625  1446,9049609375  38,03820396571715  -0,45671215240169166  -0,9273929826624756  60,860625  18781,379363671873  137,04517271203636  0,08398636573338283  -1,5123694362268745  21,020625  5526,567426171873  74,3408866383222  -0,3077113797275543  -1,0720300801556073
132  0,60626708984375  0,007631723707914352  0,08735973733885852  -0,9174457338651565  -0,20728002040188276  -0,50811767578125  0,015963286608457566  0,12634590063970247  0,21808713755560866  -1,533963493135725  0,6423193359375  0,03262070515155791  0,18061202936559323  -0,619479029067632  -1,054941625291017  17,54375  96,8367578125  9,840566945684582  -0,8060420836362288  0,034219286986106656  -10,414375  528,1986449218751  22,98257263497442  0,30265714199980964  -0,7350754459763973  -22,3275  390,3193062499998  19,75650035431376  -0,26685568654017516  -0,7449614734262147
133  0,50694091796875  0,0039576247394084935  0,06290965537505744  0,02759186454617151  -0,48391271185915397  -0,22844970703125  0,016579017466306682  0,1287595334967733  0,8391094048364575  -0,5439954529361599  0,7409619140625  0,025913833355903627  0,16097774180272137  -0,34959440713316386  -1,6741431144602714  33,77875  257,3092515625001  16,0408619332784  -0,5504766516927417  -1,2276378308565736  -113,036875  920,9174292968753  30,34662138190799  0,15051181633257438  -0,9822327786578802  -45,75125  114,90171718750004  10,71922185550332  -0,5873557205513437  -0,8421795654083843
134  0,8187060546875  0,009394520735740658  0,09692533588149518  0,5890492104844164  -0,010545925706034076  0,02587890625  0,009285306930541993  0,09636029748055987  -0,16619427045362267  -1,1228731251221729  0,1948046875  0,030367523050308223  0,17426279881348233  -0,376872281784099  -1,1571096506789755  5,3025  43,206696875  6,5731801188617975  -0,19542486811749724  -0,693374024671368  -63,725  296,53476562499986  17,220184831325124  0,3078957814288766  -0,2487197415466662  -41,53  95,24425625000002  9,759316382308754  -0,3412589634134748  -1,0536736516762963
135  1,13197509765625  0,03605113417506217  0,1898713621772967  0,06365091155309352  -0,7815142216513191  0,0273779296875  0,005645189309120182  0,07513447483758826  0,11828894579268698  -1,1393527559545336  -0,3240576171875  0,009036766552925108  0,0950619090536536  -0,039800667380599467  -0,7795251175801372  3,0525  160,251696875  12,65905592352763  -0,38263345526576853  -0,901096301516271  14,25375  999,2604546874992  31,61108120086213  -0,30696374093494316  -1,205830888144049  -41,711875  1746,532804296875  41,791539865107566  -0,7823979035409526  -1,0438831244383548
136  1,4125927734375  0,04136246917247772  0,2033776516052777  -0,17785379692315562  -1,3082758706914297  0,0914892578125  0,02401943876743315  0,1549820595018441  0,5321656560247318  -1,1994430793805024  -0,30877685546875  0,022998131960630417  0,15165135001255484  0,6031675710500886  -1,0563664254574863  5,989375  243,2143011718751  15,595329466602335  -0,6671613111036462  -0,4210475702527874  5,05625  790,7118359375003  28,119598786922623  0,5846948972875087  -1,3352099565791256  43,145625  2367,635160546874  48,65835139569439  -0,06453460312396217  -1,2606435901417623
137  0,481474609375  0,34499559197425844  0,5873632538508503  -0,8586849761069476  -0,4730371612264519  -0,1085009765625  0,004996136641502378  0,07068335476972197  -0,5044433635027799  0,8840600960524596  -0,09886474609375  0,18531407400965688  0,4304812121448007  1,831578139022691  2,6953015852661553  -0,46125  824,3757640625001  28,711944623492503  -0,47168148364475254  -0,8156927150074376  103,1625  4940,301093749998  70,28727547536607  0,3129375925781752  -0,7519146804080443  75,241875  401,73044179687486  20,043214357903647  0,2567847306527238  -1,0685406746725703
138  0,34471435546875  0,2995676784217356  0,547327761420646  -1,051341755315568  0,39755921908524705  -0,19010498046875  0,17445018894076345  0,4176723463921971  0,46663516195809457  -1,2060467989296215  1,46624755859375  0,818923509567976  0,904943926200942  0,44548509028545447  -1,3894555947540288  -12,598125  1629,3195511718752  40,36483062236079  -0,7176393637583249  -0,8198180054969613  55,915  29101,170196875013  170,590650965623  0,7072311930373467  -1,2098149865315948  -5,486875  4704,087288671875  68,58634914231749  -0,057648754784640974  -1,0815754657126084
139  0,60044677734375  0,003008542364835738  0,05485018108298037  -0,27405057810366823  -1,1111090699730795  -0,356064453125  0,0315913275718689  0,17773949356254198  -0,2986200125325016  -1,4485823825697408  0,84053955078125  0,016291175335645666  0,12763688861628392  -0,7948962095723661  0,8163243837767009  14,60125  159,4937328124999  12,629082817548545  0,062283915918926555  -1,146899564636132  -50,48625  1300,4102015625003  36,0612007781563  -0,11346927972957195  -1,6541269594284977  -31,416875  310,162426171875  17,61142885094435  0,31960559819987583  -0,8445494361883625
140  0,5865771484375  0,0020524213075637813  0,04530365666879199  1,4949454191699931  1,3289961418003067  -0,0476416015625  0,003605229878425599  0,06004356650321164  -0,46034627807649403  -1,0323904830871267  0,48050048828125  0,04739207345843312  0,21769720590405636  -0,004551802594016949  -1,3013682537123115  5,204375  157,55155117187502  12,551954077826887  0,14014576242296264  -0,7365081068146018  -95,388125  387,3015855468751  19,679979307582492  0,2372741568476652  -1,39550109740428  -32,334375  176,72198242187494  13,2936820490741  0,7136275732308294  -0,7188542924026198
141  0,98904052734375  0,027507532709836954  0,1658539499373981  -0,5185326674138556  -1,230689966992732  0,1018408203125  0,002395479702949525  0,04894363802323572  -0,13941683244025638  -1,0531552744212567  -0,011279296875  0,02480167150497437  0,1574854644244172  -0,6488480577793241  -0,8856646336354888  8,305625  182,57889804687485  13,51217591829217  -0,08749276954037305  -1,2240066571685655  -21,50625  468,4108984375003  21,642802462654885  0,9078787517420627  -0,3392767318278347  -46,43  118,66744374999999  10,893458759732832  0,30023999583290856  -0,9904096230331483
142  1,3481396484375  0,007647231793403626  0,08744845220702094  -1,2759460807795489  0,18468972375425352  0,0157275390625  0,06254021308422088  0,2500804132358648  0,31571041293890517  -1,4051973727071285  -0,32005615234375  0,0020766548812389376  0,04557032895688748  0,6687272642928545  -0,11344825256196911  -7,909375  340,59221679687494  18,45514066044675  -0,6946342828221402  -0,7288767815542361  14,39  78,68672812499999  8,870553992000724  -0,32340923383295145  -0,27229379348284155  -19,68  460,6041625000001  21,461690578796446  2,4471848273539956  5,165407797828397
143  1,1840234375  0,02304304852485656  0,1517993693163992  -0,5998504242274652  -0,31183253557922574  0,1167578125  0,0166210295200348  0,12892257180197267  -0,6805748269312618  -1,0008333101747746  -0,22302001953125  0,004156590098142626  0,06447162242523935  0,42051629845186406  -1,053149257452147  41,738125  1367,092788671874  36,974217891280325  -0,04195642980080653  -1,355308196019441  14,16625  984,4986109375005  31,37672084424216  -0,3232971383479589  -1,1102215026073214  64,08125  384,18238281249984  19,60057098179795  0,31271637725580287  -1,2670628420097907
144  0,12239990234375  0,21065230175852773  0,45896873723438697  -0,14042263339644603  -1,470369335906279  -0,25219482421875  0,02052886902689934  0,14327899017964685  0,8503935822583434  -0,47818201661790427  0,9425537109375  1,0171437615156176  1,0085354537722595  0,20946421468771995  -1,5297078527498806  -50,304375  484,0502855468749  22,001142823655204  -0,06094197467807566  -1,1098014623446704  169,466875  4955,828707421874  70,39764703043613  0,4526543669286137  -1,3000580127044095  53,04  3278,9418374999987  57,262045348555255  -1,2443219553695994  0,03878069894850533
145  0,6004296875  0,014417019510269174  0,12007089368481094  -0,608550924689346  -0,9445039035889322  -0,3152685546875  0,040620912575721785  0,20154630380069435  -0,27029712043631215  -1,134229139359036  0,82150390625  0,09885072145462041  0,31440534577933055  0,8127546858324183  0,15953136037249527  -5,72  737,3037875000005  27,1533384227428  -1,1373009582581712  -0,008181459684791115  -13,15125  940,6994671875001  30,670824364328716  0,7817250987287567  0,5428858753879484  -21,09625  1395,3772984375007  37,354749342453104  0,7724296494793299  -0,7173489225110936
