ventana,acc_x__mean,acc_x__var,acc_x__std,acc_x__skew,acc_x__kurtosis,acc_y__mean,acc_y__var,acc_y__std,acc_y__skew,acc_y__kurtosis,acc_z__mean,acc_z__var,acc_z__std,acc_z__skew,acc_z__kurtosis,gyro_x__mean,gyro_x__var,gyro_x__std,gyro_x__skew,gyro_x__kurtosis,gyro_y__mean,gyro_y__var,gyro_y__std,gyro_y__skew,gyro_y__kurtosis,gyro_z__mean,gyro_z__var,gyro_z__std,gyro_z__skew,gyro_z__kurtosis
1,-1.0086376953125,0.0060614261388778675,0.07785516128605648,0.18994621297296657,-1.3271377417954189,0.2325048828125,0.0017547490835189807,0.04188972527385421,1.2919049335796615,2.758778215135159,0.08978759765625,0.015589927262067798,0.1248596302335859,-0.43863038060744514,0.29707122402522357,-3.5475,175.54032187500007,13.24916306319007,-0.28911799099376406,-1.4699933781591044,79.9375,136.853671875,11.698447413011694,0.27094044120014094,-1.032497837519468,-10.809375,263.95549804687516,16.24670729861516,-1.1768258560790394,-0.14275719615264526
2,-0.846728515625,0.0010851812362670898,0.03294208913027663,-0.7782441170768062,-0.6317910703001042,0.1857177734375,0.0022267025709152236,0.04718794942477606,0.47862226171690114,-1.0320724359678248,-0.2597705078125,0.006636803126335146,0.08146657674368762,-0.07859292588407206,-1.6639273965922368,2.55125,212.53315468749994,14.578516889159197,0.30800344462663654,-1.245478318188162,83.205625,78.02408554687503,8.83312433665886,0.10237246816436534,-1.23720411996835,-7.84125,42.187298437500004,6.495175012076272,0.36446869588698466,-0.8033004108739927
3,-0.707216796875,0.0007268215656280525,0.02695962844009636,-0.7375423549713112,0.12943912147726966,0.1694921875,0.0013879884719848624,0.03725571730600368,0.1530043988965297,-1.2492370464382117,-0.504423828125,0.003710826969146729,0.06091655743019897,0.37566371168524154,-0.8470421597114042,0.688125,46.112382421875,6.790609871129028,0.43653803507276845,-0.6975434651949382,64.65625,139.9632421875,11.830606163147348,0.12827880959519716,-1.3367882047455308,-2.559375,12.98713867187501,3.603767288806952,-0.478540091051511,-0.930002188567093
4,-0.61142578125,0.002574015855789184,0.05073475983770086,0.4819030956744006,-1.3598946738279398,0.18961181640625,0.0034490875899791705,0.05872893315887128,0.399422765130714,-0.8447202800441964,-0.63988525390625,0.00309843117594719,0.05566355338951323,0.8323524412557393,0.07900690215647188,13.736875,38.34080429687501,6.191995179009348,0.19182962990553615,-1.2623867432981146,53.976875,62.134035546874976,7.8825145446662495,0.21043812555187746,-0.50401376402186,-12.7075,28.97100624999999,5.382472131836819,1.414072639865186,1.485634308457895
5,-0.5571337890625,0.00216345546245575,0.04651296015580765,-0.4299427371979527,-1.271354535969455,0.0912841796875,0.0004717749357223513,0.021720380653256315,-0.2158360065052879,-0.8870429205059494,-1.0113818359375,0.06755054566860197,0.25990487811621,-0.6822615382266884,-0.6888741111833343,3.040625,75.96690429687496,8.71589951163246,-0.7702036012728865,-0.8485426033304115,58.195625,60.130129296875005,7.7543619529188215,0.04951113237894167,-0.9287242550764963,-10.240625,28.15698242187499,5.30631533381451,0.3949840420528527,-0.0846118822867501
6,-0.2812451171875,0.0033467960119247463,0.05785149965147616,-1.751222293894908,2.2412771808447447,0.16680419921875,0.0025909362494945538,0.05090124015674426,-0.007617173458715266,-1.6115174706538078,-1.5098388671875,0.05779424011707304,0.24040432632769537,0.35974592175284176,-1.4191649628883012,8.94375,59.50503906250004,7.713950937262956,-0.4104458286612775,-0.35732626247480814,-70.58375,5579.8718921875,74.69854009408417,0.2196467373627148,-1.2629819006778251,-6.46125,27.0250609375,5.198563353225581,0.4754611374052143,-0.91916877375707
7,-0.2706689453125,0.004304839634895325,0.06561127673575119,-1.1850758417854375,0.2763868151086415,0.05660888671875,0.010016889160871506,0.10008441017896597,-0.342103549007302,-0.8735693954404176,-0.2158935546875,0.17826681315898882,0.42221654770862405,-0.0905387100938905,-0.7812213413815257,18.6875,481.60015625,21.94539031892575,0.5521184929991356,-1.24096610551149,-231.20375,162.0027046875001,12.728028311073954,0.5075147719014066,0.01758858201728808,28.9825,691.6314906250002,26.298887630943636,0.5901906273894884,-1.3187709578838738
8,-1.003193359375,0.07194144330024713,0.26821902113803775,1.0895971615551487,-0.43164672943602644,0.2670068359375,0.006438613200187679,0.08024096958653777,-0.1632450335304853,-1.1481329824895647,0.75171630859375,0.0272926300227642,0.1652048123474743,-0.48419715191897844,-0.8890564972648907,-8.326875,48.471160546874984,6.9621232786323874,-0.36079443035105563,-0.7243667697283964,-88.85625,6444.537382812501,80.27787604821457,-0.15067679683092758,-1.5461816425722692,17.278125,635.5000292968747,25.209125912987833,0.2174353288626787,-1.0724556506016845
9,-1.05697998046875,0.0023779772460460675,0.048764508057049724,-0.6839193153468308,-0.94366285263931,0.16534423828125,0.002060726135969162,0.04539522151029954,-0.007142773007245178,-1.2333819699806967,0.25462646484375,0.001507087200880052,0.03882122101222541,1.5932100074173696,2.246921638220841,-1.524375,70.36835117187506,8.388584574996848,-0.7396697114825944,-0.6245290649761497,21.934375,23.720732421875,4.8703934565777125,0.3359475790506389,-0.8200266974093107,-6.570625,24.056926171875002,4.904786047512674,-0.37677739949367894,-0.23462527592413807
10,-0.99247802734375,0.00042421185374259926,0.020596403903172012,-0.30732722054703215,-0.9208625237445949,0.16056396484375,0.0016720915496349332,0.04089121604495192,0.08188494320646084,-0.8713225216505371,0.208037109375,0.0008447578907012944,0.02906471900262059,0.1911686164257806,-1.1482527823377677,-14.233125,125.22780117187499,11.190522828352346,0.13084643510605143,-0.6525397571351204,46.70125,123.01863906249999,11.091376788410896,0.08144965845156685,-1.8355251982851735,-5.28,35.86378749999999,5.988638200793231,0.007525373547219481,-1.2826632915403589
11,-0.86987060546875,0.005698899620771406,0.07549105656149876,-0.6606907424290648,-1.1400533270944124,0.19937744140625,0.003197855204343799,0.056549581822890604,-0.40517636322110406,-0.9918238178802659,0.03398681640625,0.01659480130076409,0.128820810821715,0.11590746262861554,-1.0023774768445046,-3.291875,407.4523480468751,20.185448918636293,-0.46944366182176356,-0.7892133363896208,91.299375,176.99299179687495,13.303871308640765,-0.027706488677135446,-0.7799870840432463,1.791875,117.41781679687494,10.835950202768327,0.16421115026456248,-1.5646957438703986
12,-0.66117919921875,0.003616957300901413,0.06014114482533079,-0.6585651066214501,-1.1547645821364125,0.15775634765625,0.003618950909376144,0.060157716956149056,0.1406391808415248,-1.6177190319552217,-0.42194091796875,0.018996555632352828,0.13782799291999007,0.17771630600825017,-1.4827081975947067,-5.51875,261.82878906250005,16.181124468419988,0.40268313230708913,-1.1125167298099392,106.610625,151.25334804687506,12.298509992957483,-0.6162740841478641,-1.0302692242343876,-15.256875,175.139679296875,13.234034883469024,0.20042717070740304,-1.502494659221081
13,-0.52376708984375,0.001227603405714035,0.0350371717710496,0.48413023617643003,-0.5137887656592608,0.122734375,0.0037112463474273678,0.060919999568510894,0.8405881627849902,-0.6531205509281386,-0.86001953125,0.03545126142501832,0.18828505364212614,0.15582686971920104,-0.37434745251150847,-0.095625,98.936676171875,9.946691719957697,-0.24053993900914647,-1.1912633025832895,108.4925,62.92502187500002,7.932529349142052,0.5461400592068654,-0.7268096864976692,-8.798125,22.319676171874995,4.72437045243861,-0.07066655923754994,-0.6042579553484377
14,-0.25973388671875,0.01172554451823234,0.10828455346092691,-0.5895225081562022,-1.213732962710549,0.1728369140625,0.004088696026802063,0.06394291224836467,-0.8358100728530526,-0.5597122846853773,-1.6522265625,0.0280645435810089,0.1675247551289328,0.3738334868195444,-0.9128029203370298,6.5625,169.4753125,13.018268414040325,0.15127118704764983,-1.316871148303678,-1.0625,5650.492890625,75.16976048002947,-0.34052041538800576,-1.1681822794056245,0.4625,96.2149999999999,9.808924507814295,-0.7890897764638247,0.13813016521972576
15,-0.21130126953125,0.001235229367017746,0.03514583000894624,0.35442172882708556,-0.19183245178452069,0.1237548828125,0.0028604394197463993,0.05348307601238358,-1.0998311904315696,0.42250316419270595,-0.74453857421875,0.16524423796534535,0.40650244521447265,-0.07182365536062643,-1.3758018939170673,-0.901875,681.0229105468752,26.09641566473977,-0.6424494001022593,-0.7904176170065309,-240.740625,2027.981435546872,45.03311487724197,0.8514297967560146,-0.6233324512493028,19.05,76.12179687499997,8.72478062045115,-0.7822408143653278,0.17269007350880905
16,-0.644482421875,0.14395975112915035,0.3794202829701522,0.051437991410845235,-1.607284516419605,0.13193603515625,0.007009608858823778,0.08372340687540002,-0.7074559693995249,-0.9497333355904147,0.83890625,0.10612750735282911,0.3257721709305893,-1.0590201670378705,0.026488017813289577,-19.831875,562.8253667968746,23.723940793992778,0.29062305108092357,-1.1643525440949103,-178.376875,7878.719332421872,88.76215033685176,0.43998112717305987,-1.2273116271263027,11.82875,117.24418906249997,10.827935586366404,0.7891896355950118,-0.044992158731191
17,-1.01130615234375,0.0023473807513713836,0.048449775555428364,-0.4190845553165205,-1.2310703923622612,0.1831494140625,0.0017483536958694465,0.04181331959877673,0.3514959631168845,-0.7001629607766233,0.4502783203125,0.016324650311470047,0.1277679549475143,1.4127891117626281,1.5184453908499007,6.298125,121.75264492187502,11.03415809755665,0.5343920682651104,-1.0844709262242829,3.674375,21.768538671874992,4.665676657450128,-0.14777850990053276,-0.5662809057282594,-3.56375,21.870545312499996,4.676595483094513,0.49362539817835255,-0.24465100320621058
18,-0.9705615234375,0.0008189012765884396,0.028616451152937178,-0.2878157798217702,-1.2099542522798608,0.176357421875,0.0014640325546264646,0.03826267835144927,-0.11324631285076318,-0.7395623413852617,0.44565185546875,0.0028986273944377893,0.05383890224027408,0.2085269628690719,-1.058777890086521,7.988125,34.43942929687498,5.868511676470873,-0.25510450901314646,-1.3595547895387359,29.1375,495.98632812500006,22.270750506550065,0.3675398012890622,-1.6100204347406477,-6.055,6.734006250000004,2.594996387280723,-0.23944810258941326,-0.2575043957653347
19,-0.95953857421875,0.0015426967799663542,0.03927717886975023,1.385369547335246,1.6221349450450235,0.1435498046875,0.0005674659967422484,0.02382154480175978,0.7319008175386684,-0.3475709410505621,0.26113037109375,0.0021172298133373276,0.04601336559454576,0.1560130609182218,-0.5223211225514763,-0.82125,122.03593906249998,11.046987782309708,0.010964063871395362,-1.4526229209065407,80.925,113.61398437499994,10.658986085693138,0.5847982631285049,-0.7956681530458196,-0.16,33.890415625,5.821547528363914,1.181342160811939,-0.12837763738607366
20,-0.71463134765625,0.007015680855512618,0.08375966126670176,-0.7037856803157899,-1.1803285980258595,0.22608642578125,0.006150596588850018,0.07842573932612952,-0.841638243932451,-0.703614068622163,-0.0941259765625,0.04459618737697598,0.21117809397988224,-0.002243142945173695,-1.397303290056845,7.234375,114.345029296875,10.693223522253474,0.07996680652094383,-1.3923079557817886,125.330625,136.555648046875,11.6857027194292,-1.1968775188269143,-0.03939501228900211,12.304375,146.800988671875,12.116145784525498,-0.25986222058585956,-1.1140871248999162
21,-0.563466796875,0.0007495903015136717,0.027378646816701362,-0.6755446952359775,-0.8879408564071838,0.1927734375,0.0010006320476531984,0.03163276857395189,0.3524999036622362,-1.1746871801184338,-0.68311767578125,0.029891024082899093,0.1728902081753015,-0.7798866449921638,0.6481102420075899,7.050625,159.04497617187502,12.61130350803893,1.5902733659497053,1.855837988240924,100.8575,352.67391249999986,18.779614279851433,-0.11245196632518763,-1.3364107565505727,-14.11375,24.210654687499982,4.9204323679428805,0.5915415061978905,-1.1698281811410984
22,-0.65224365234375,0.006944611185789109,0.08333433377539601,0.5045038323881109,-0.9870758907438013,0.232763671875,0.0008922922611236575,0.029871261458526612,-0.375974767538587,-0.8924752526699002,-1.4908056640625,0.01766864802837372,0.13292346680843725,0.4373612340117402,-1.20659635815766,1.8925,62.805396875000035,7.924985607242453,1.9975821162290324,5.507428577944852,1.966875,2940.018394921876,54.22193647336727,0.3336417119704323,-1.1840604150633738,-10.0125,124.70015625000002,11.166922416225521,0.2998643066459149,-1.277356303830899
23,-0.33787841796875,0.0037886027991771705,0.06155162710422179,-0.14897532828069499,-0.7123715074408166,0.1475732421875,0.009948444867134093,0.0997418912349976,-0.9951984312853175,-0.4432680349215614,-0.86201171875,0.09127879261970523,0.3021238034642508,-0.003487399149131058,-1.403398366055057,4.400625,203.83836679687516,14.277197441965813,0.35144896798669406,-1.1066011665799973,-187.33,3767.4588343750015,61.37962882239515,0.4969119072227567,-1.0624335596027923,5.56,39.12757187500001,6.255203583817237,2.5033149714431215,7.344919895308813
24,-0.42986572265625,0.14276040059924136,0.3778364733575113,-0.5521421102582845,-1.1165981813553012,0.20122314453125,0.011834066265821447,0.10878449460204082,-0.5748869603793118,-0.8107561139403119,0.741591796875,0.29280094900131237,0.5411108472404821,-0.44559521303052313,-0.7865515619256667,-4.24875,1484.7131234375004,38.531975337860636,0.1307954356652548,-1.0040905372708901,-221.254375,3467.1594730468746,58.882590576900355,1.2974002976986323,0.48286988098018835,21.79625,750.9178609374999,27.402880522629367,0.630649765692731,-0.17343282570805574
25,-1.00040771484375,0.0052102089583873756,0.07218177719055811,-0.9152334399869136,-0.3750305069398703,0.2007275390625,0.010018182253837587,0.10009086998241941,-0.25113004092020846,-0.5772073967350111,0.69497802734375,0.08621890146136282,0.2936305526701246,1.2141884004599495,-0.009509814027100827,-11.023125,353.9311449218751,18.813057830184732,0.10765448659065578,-1.504730098398402,8.439375,381.2268324218748,19.525030919869877,-1.796068030222384,2.9941910970344034,1.45125,82.54504531250002,9.085430386751089,-0.22099232630696122,-0.17283662264330157
26,-0.91927978515625,0.00018133122324943542,0.013465928235715331,-0.2581528149199557,-0.6264576409909299,0.23900390625,0.0018019591808319088,0.04244948975938237,-0.45478865462097184,-0.7393798247236205,0.46711669921875,0.0023296495616436,0.04826644343271628,0.6844221736690879,-0.9594098679414147,-10.938125,67.09613242187498,8.191222889280635,0.02124108843023458,-0.9073518420271562,19.92625,22.147920312499988,4.706157701618167,-0.49199104856054476,1.8379432989769118,-4.895,35.0899125,5.9236739022333085,-0.8954771250740895,0.20193293438352278
27,-0.93830322265625,0.0011775425612926493,0.034315340028807075,-0.6005229610741949,-1.1993313564225712,0.14284912109375,0.005950230234861374,0.0771377354792152,0.4656600965429782,-1.0078214473585045,0.47173095703125,0.01872733389735222,0.13684784944365116,-0.1960860780202673,-1.5053950193808194,4.315,944.3861656249995,30.730866659191367,0.6190422912273861,-1.2024462791577828,94.516875,955.163348046875,30.905717077053477,-0.5130868615826949,-1.250927283267628,-18.375,92.308203125,9.607715812043985,-0.20359503559121866,-1.2597694336504537
28,-0.766298828125,0.006408416175842284,0.0800525838174027,-0.3465980441025379,-1.2497010117358591,0.14683837890625,0.01418638870120048,0.11910662744448976,0.6738824757291321,-1.1279014490917845,-0.02170166015625,0.033369617336988455,0.1826735266451832,-0.23475040114578993,-0.928004924563945,9.080625,179.54580429687496,13.399470299115372,0.14283949283580552,-1.1625848201677162,128.82375,14.123467187499996,3.7581201667189936,0.0893084262691759,-0.5885766132218597,28.0875,188.29781249999982,13.722165007752961,-0.010481925962129383,-0.8907935014783863
29,-0.628271484375,0.0033712041378021252,0.05806207142190266,0.3994156221652914,-1.2944669759186793,0.2822607421875,0.0021789169549942013,0.046678870541115296,0.21472145716396718,-0.6518927842986662,-0.563046875,0.018071128273010245,0.1344288967187124,0.050702305147141496,-1.4587745572845516,1.7025,368.47555625,19.1957171329961,0.5945359223730082,-0.6071153330995651,107.61375,148.43331093749995,12.183321014300656,0.05644005796702575,-1.4213224450881716,-5.786875,41.64430429687501,6.453239829486814,0.8335624570919075,-0.3926692280190127
30,-0.61017333984375,0.0016934297740459447,0.041151303430704896,0.4902548231735462,-0.7214250194691436,0.17918212890625,0.004279913014173507,0.06542104412322924,0.08757991410464092,-0.7748995038585718,-1.03546630859375,0.0301633105933666,0.17367587798357778,-0.26032734659889156,-1.5598972692397863,9.00625,470.8992578125,21.700213312603633,0.791646783125055,-0.9712501132967799,58.1825,549.5958343750001,23.443460375443728,-0.4871554012028138,-0.9092739113152017,-14.7625,47.68734374999999,6.905602345197701,-0.3647015119801565,-1.0468682296111673
31,-0.5396728515625,0.008782461285591125,0.09371478691002358,-0.0880106283058909,-1.2796659584141814,0.28361083984375,0.0017853069961071028,0.04225289334598405,-0.2747948737450328,-0.666540431404373,-1.40026123046875,0.015039339607954021,0.12263498525279816,0.5911494037095307,-0.6656388271204272,6.435,91.33069687499997,9.55670952132584,-0.6222019977955179,-0.636474374101049,-52.33375,2372.5543921874996,48.708873854642746,-0.1884868261702153,-1.2256893763606986,-8.82875,33.20723593750001,5.762571989788936,-0.22285322914181574,-1.5732746107542543
32,-0.30388671875,0.005790892934799198,0.07609791675728841,-0.016915546595679076,-1.691127760222283,0.11978759765625,0.0017008189857006068,0.04124098672074429,-0.946337147225363,0.31472556211351854,-0.417861328125,0.13697309412956243,0.37009876266959124,-0.06773033480239453,-1.1815932073625592,7.3575,131.08336562500006,11.449164407283183,-0.18128713527583387,-0.18544989368140596,-208.47875,701.0485328125003,26.477321103399042,0.4926610413785807,-0.8681862137664269,-5.538125,84.794679296875,9.208402646326615,-0.8543486745846098,-0.2291086982491506
33,-0.847109375,0.09616617455482482,0.31010671478512813,0.9369996098383947,-0.6525605299107933,-0.01421630859375,0.007067453688383105,0.08406814907194701,-0.2023928230324684,-1.0149869791560266,0.837451171875,0.13117739915847776,0.3621842061140681,-0.09164299188970994,-1.3780861116185954,-7.214375,1036.0445511718744,32.18764594020312,-0.5327165784710256,-0.7988866563387975,-133.6025,11326.428165624999,106.42569316487912,-0.05224640059566078,-1.6807978657281413,-12.1125,971.8588281249993,31.17465040902623,-0.9322420510862701,-0.8539997381861717
34,-0.98213134765625,0.0007847686946392065,0.028013723326955425,0.35318512099967375,-0.5097077182603837,0.0848779296875,0.0014304652452468882,0.037821491843221734,0.2723182670362147,-0.3324521757411558,0.44048583984375,0.0008899877727031707,0.02983266284968827,-0.1254471940960273,-1.0367889756344457,-0.345,43.237224999999974,6.57550188198589,0.05212961439561584,-1.2798291466205924,-7.216875,34.642769921875,5.885810897563308,0.3688672573500428,-1.4338562019496144,10.791875,18.040629296875,4.247426196754335,-1.1303681590591472,0.3118149968276911
35,-1.00047119140625,0.000979860132932663,0.03130271766049496,-1.3488331360376664,0.5487119981476019,0.11125,0.0015257965087890624,0.03906144529826133,-0.15097940551831218,-0.7374106989409408,0.51473876953125,0.003638994282484055,0.06032407713744202,0.0008557049490205764,-1.372298720266483,0.000625,98.19871054687499,9.909526252393452,0.11332188171356893,-0.8841654166377548,40.064375,660.706363671875,25.70420906528491,0.4928301550998149,-0.94294615285619,6.5225,56.01621250000002,7.484397938378211,-0.6020614757315528,-0.6602045503781664
36,-0.90511962890625,0.0012364907920360563,0.03516377101557875,-0.28171495911867406,-1.5740970680064388,0.131943359375,0.0009802321434021,0.03130865923993073,-0.003951169585966113,-0.9725379954231004,0.23318359375,0.00956936273574829,0.09782311963819336,0.0525005058967649,-0.9154741106731121,-1.82125,76.92765781249994,8.770841340059684,0.8530984675249741,-0.6950816375483821,101.708125,46.71516054687501,6.834848977620135,0.8024040797222985,-0.22734387762186303,10.87125,35.50990781249998,5.95901903105704,0.13102417442958017,-1.2186887171164291
37,-0.71501220703125,0.004236544007062909,0.06508873947975109,-0.7059669082234479,-0.82253023553411,0.227587890625,0.00131767749786377,0.03629982779385833,-0.12897493242563865,-0.8694247098767987,-0.1740771484375,0.021299543356895455,0.14594363075138103,0.23742094621661472,-1.5849458925779336,3.90125,223.77048281249998,14.95895995089565,-0.3467831078681864,-1.2010807602893834,124.854375,90.31633242187498,9.503490538842819,0.1740758451355925,-1.3837402267502859,15.551875,88.07680117187502,9.384924143107126,0.051048846616616,-1.5355650314821134
38,-0.49119140625,0.004179695463180539,0.06465056429127698,-0.7150998559958782,-1.1828346402062337,0.16989013671875,0.00251374561190605,0.05013726769485998,0.2698972523793129,-0.4285510199008544,-0.67630859375,0.05004015054702759,0.22369655908624878,0.07743705143637479,-1.324518619570019,-2.07625,128.11746718750007,11.318898673788897,-0.9912469161966685,0.5398242053391042,120.449375,123.71810117187495,11.122863892535724,0.16295831668414806,-1.0461942069952683,-5.583125,24.48195742187499,4.947924557011252,0.3129212056548614,-0.5597282966175863
39,-0.46296630859375,0.0002695866763591768,0.01641909487027762,-0.4183184315256946,-0.8761386062962351,0.47562744140625,0.012813868588209147,0.11319835947666886,-0.4823157813217997,-0.9161571725216873,-1.55558837890625,0.04845062934756277,0.22011503662304122,0.8959613631858843,-0.4687351961962811,-21.26,488.7227124999999,22.10707381133921,-0.10564502797517829,-1.281584278787622,14.595,4308.9966,65.64294783143121,0.12192517209560298,-1.4415925335875497,-5.37375,41.2546078125,6.422974997032139,0.4019625585134535,-0.9455209384848695
40,-0.33380615234375,0.0028225825488567362,0.05312798272903589,-0.28979396430918214,-1.2914001235208001,0.32620849609375,0.00523444101214409,0.07234943684745646,-0.3423308217110805,-1.221527376489033,-0.9815087890625,0.0535044737100601,0.23131034068986214,-0.012560498920109171,-0.9607261051940301,26.2425,72.62853750000004,8.522237822309352,0.4312836932214968,-0.971678863672409,-170.505625,2457.413523046875,49.572306008969115,-0.24371382111030612,-1.189167842869358,-17.45,58.804609374999934,7.668416353785176,-0.5473414497899848,-1.2797692681288702
41,-0.35637451171875,0.037149861210584646,0.19274299263678732,-1.73915397776179,1.8589566786455274,0.0714453125,0.010608822727203364,0.10299913944884861,0.016735119409767418,-1.3202200402780953,0.4517041015625,0.38382232949733724,0.6195339615366838,0.08855374512594724,-1.2135769980663147,-8.41375,2416.3084984375005,49.15596096545668,-0.2713195403188097,-1.2174044439880913,-245.80625,2291.0251171875007,47.86465415301254,1.7126177440037453,1.645188827435761,8.52,638.7749125000003,25.27399676545046,0.23724432820770658,-1.509326977052768
42,-0.97868408203125,0.001421392792463302,0.037701363270620625,1.011333435104632,-0.015015317679106133,0.16076171875,0.0030864470958709696,0.055555801640071484,-0.10616649327202754,-1.0772693650041334,0.8003662109375,0.11916824519634239,0.3452075393098221,0.3977208317818481,-1.484361912776837,10.184375,401.3002636718741,20.032480217683332,-0.7545322696245547,0.8809797642969452,-13.85,1911.1332031249967,43.716509502989794,-0.8933980270281784,-0.794133446289107,-8.16375,58.47638906249999,7.646985619347011,0.09237704942342836,-0.7837666709805031
43,-0.95712646484375,0.0005779634654521944,0.024040870729908983,-0.5701873341106984,-0.8642198470354243,0.16490234375,0.0010398665904998777,0.032246962500363935,0.005320219667039552,0.0004327137417110549,0.4621923828125,0.00026012423038482665,0.016128367257252876,0.223352823052393,-0.9895155554040951,-2.823125,71.36266054687502,8.44764230699164,-0.48690550700152113,-0.9875591550493494,13.296875,23.952763671875,4.894156073510018,0.20810844367656614,-1.1037097634819304,-5.804375,37.627551171875005,6.134130025673976,-0.4879954726318178,-0.6717899681547705
44,-0.98301025390625,0.0005586696803569792,0.023636194286665087,0.4157099115389578,-0.4962702115382478,0.1535009765625,0.00034861400127410904,0.018671207815085477,0.3963394172279921,-1.1121644334914715,0.4797509765625,0.0007652864694595338,0.0276638115497401,-0.40744703401792487,-0.45314991997124876,5.43875,114.83156093750006,10.715948905136683,-0.5598337687334141,-0.7973739525840049,58.2875,622.4263281249996,24.948473462819315,0.33107007033162805,-1.0194775276247539,5.270625,4.461801171875001,2.112297604949407,0.20930126757484413,-1.1064193735978265
45,-0.81515380859375,0.004068016594648361,0.06378100496737536,-0.36487125649641156,-1.336093421810701,0.171005859375,0.0004353336334228517,0.020864650330711314,0.7460257955465333,-0.23436021859219025,0.166796875,0.02340722680091856,0.15299420512201944,-0.21887203807544342,-0.9243001610899748,19.59,56.58955625000003,7.52260302355508,0.03980402162001314,-0.8414761707916734,124.05125,55.7447171875,7.4662384898622145,-0.46681523138255443,-1.1566724069285224,6.59625,16.8815953125,4.108721858741474,0.4438360123021716,-0.8574282148045147
46,-0.67694580078125,0.004284335201978684,0.06545483329731032,1.1161034042894735,0.25484931379645426,0.2225390625,0.0026738315582275378,0.051709105177207795,-0.10733824846258122,-1.0103838031417294,-0.330556640625,0.02081896772384644,0.14428779478475107,-0.22298311387550446,-0.7984298531378702,15.9975,66.98319687500003,8.184326293287679,-0.6502434064337735,-0.5839111042652085,137.811875,76.446757421875,8.743383636892242,0.37507244898648534,-0.7716988321287581,-5.729375,109.2053949218749,10.450138512090398,0.45716696890874,-1.4042813302624972
47,-0.3770263671875,0.003711621165275576,0.06092307580281527,-0.7944154404054508,-0.38095185199751835,0.13576904296875,0.0023210655391216264,0.048177438071379704,-0.5035284917611341,-1.0766407835526874,-1.08988037109375,0.044105591028928776,0.21001331155174136,0.4734632672551309,-0.9146048666933906,4.304375,182.04622304687499,13.492450594568615,-0.03293976595953643,-1.4631416779141826,110.960625,1098.7117699218747,33.14682141505992,-0.38482769283069473,-0.9400937626575527,-4.563125,33.721913671875015,5.807057229946595,-1.3864224483175518,1.2941067696244088
48,-0.28201416015625,0.0019875021636486054,0.0445814105165887,0.7473112641614548,-0.699379136397654,0.24473876953125,0.0012141744792461392,0.03484500651809581,0.7386185888574568,-0.8841977854188916,-1.4848486328125,0.0076306495904922556,0.08735358945396723,0.000706289763739424,-1.0918807638862968,4.14875,124.78013906249998,11.170503080098943,-0.5678547232201746,-0.4261130285855814,-33.69,2214.196868749999,47.055253359747184,-0.20763257946519145,-1.360524924547331,-5.33,34.90688125,5.908204570764286,-0.20744845225889325,-0.8916860353397493
49,-0.30387451171875,0.002838330334424975,0.053275982716651744,0.3627410148911389,-0.356603995352883,0.09588134765625,0.006337169235944747,0.07960633916934472,-0.8262458561760387,-0.45148252293017643,-0.674013671875,0.3285620547771456,0.5732033276047389,0.13690046869234468,-1.2527651889203342,-3.7375,487.84453125000016,22.087202884249518,-1.3055951139664952,0.6362171225819178,-222.140625,1531.870185546875,39.1391132442583,0.8585857083878767,-0.18403637324401334,-8.220625,31.260113671874997,5.591074464883739,-0.13510234805677793,-1.424588841424678
50,-0.799169921875,0.07780993938446042,0.2789443302604669,0.6027533051372438,-1.1426063674645248,0.03994384765625,0.0015020536124706273,0.03875633641703802,-0.2126307174296199,-1.0566367310959168,0.68489013671875,0.03686171733736991,0.19199405547404302,-0.268745137958816,-1.1902642893965463,-11.35625,543.7483203125,23.318411616413755,0.20292220173863884,-0.7093991732245253,-126.294375,5473.693460546875,73.98441363251368,0.14657353024560427,-1.5486972598252786,-8.0,288.75640625,16.992833967587632,0.14912346761757891,-1.0983264407105007
51,-1.029072265625,0.0003658684253692623,0.019127687402539343,-0.25465611145597417,-0.7073316522527291,0.08927978515625,0.0012293633162975316,0.03506227768268245,0.040092240544738644,-1.2395367301333682,0.229072265625,0.008647016382217423,0.09298933477672278,1.3223341363670722,1.161364105231014,3.213125,8.907819921874994,2.984597112153497,0.17850275139409277,-1.1292797516331121,-2.40875,22.310501562500008,4.72339936512889,-0.22746784198888306,-0.7081919284320808,4.054375,36.246457421875014,6.020503087107839,0.09259910274917434,-0.9640053644010154
52,-1.0538232421875,0.0011246447801589977,0.03353572393968852,-0.38447810385443937,-1.2421825946060914,0.11810546875,0.0007400919437408455,0.027204630924547488,0.04539729872632327,-0.38061062690704794,0.40277587890625,0.015138720101118094,0.12303950626168042,-0.03884577327974448,-1.4574715193550367,0.446875,18.075341796874994,4.251510531196529,0.754831468820929,-0.3630524013209011,25.23125,935.7951171874998,30.59076849619015,0.9590065080726099,-0.48931258618233153,4.19875,2.9394828125000005,1.714491998377362,0.5676187961825037,-1.134409318938638
53,-0.880244140625,0.009595592594146728,0.09795709568043924,-0.21594170170596436,-1.1887432541377063,0.1290478515625,0.0021338917970657343,0.046194066686813084,0.7847246127374059,-0.48814731683111745,0.06719482421875,0.039447258538007735,0.1986133392751044,0.30811281350146386,-1.0541781373492023,11.4925,88.60291250000002,9.412912009574933,0.06512139123578285,-1.1031293777579052,110.55375,39.30109531250002,6.269058566682881,-0.018273128595823043,0.03928459916614724,8.804375,36.543332421875014,6.0451081397999005,-0.19012206697022946,-1.003604842216367
54,-0.6396826171875,0.002020760798454284,0.04495287308342242,-0.2714375459989839,-1.0037674435455402,0.14682373046875,0.005556337708234787,0.0745408459050123,0.40611746037570834,-0.8492700362418297,-0.3426513671875,0.009277073740959168,0.09631756714618142,-0.5409676203466214,-0.9758248899810709,-3.440625,114.18096679687497,10.685549438230819,0.026958228475792646,-1.242494671488333,115.09375,12.5895703125,3.548178449923284,0.07967765276465777,-0.3497643278089124,8.688125,72.89503867187499,8.5378591386761,0.2357142214653817,-0.7865712321983871
55,-0.47341064453125,0.012218603008985519,0.11053778995884403,0.3515062787085618,-1.3062245178279206,0.26210205078125,0.001232496803998948,0.0351069338450248,-0.14787570129865715,-1.1300352949683274,-1.15640625,0.16195480647087096,0.40243608992095997,-0.006806604288573225,-1.6211994525861315,-1.928125,256.91995117187514,16.02872269308678,0.7017502278367131,-0.27347637717532836,91.3525,1167.0548062500002,34.162183862423085,-1.0330871577521419,-0.2883608821973005,-4.255625,25.028054296875002,5.002804643085216,0.27712618699907665,-1.2366237145851267
56,-0.29264892578125,0.0003986271560192108,0.01996564940138965,0.5762500187657922,-0.7516614580219176,0.3012060546875,0.0006936462163925167,0.02633716416762664,-0.4959260770133538,0.5514510522027622,-1.400869140625,0.0426481710910797,0.20651433628462626,-0.02842065350076075,-1.339527354007659,6.79125,126.8545484375,11.262972451244831,0.48734176201372476,-1.0402280343968848,-97.624375,3396.684257421873,58.28107975511326,-0.08141145429394064,-0.9215540775059896,-9.77375,29.838185937500008,5.4624340671078135,-0.6882931018731961,-0.36250846543820714
57,-0.2697265625,0.013621913194656372,0.1167129521289577,-1.198173130000702,1.587947569365256,0.12592041015625,0.001971192187070846,0.04439811017454286,-1.088909454306497,1.5515773696161714,-0.09341064453125,0.4342651759326459,0.6589879937697241,0.3366029985985331,-1.3615368164498014,-21.528125,307.4273730468751,17.533606960545086,-0.25758130310053096,-1.7027835585358295,-256.984375,539.260498046875,23.22198307739619,0.8161838774650849,-0.09225822532917016,-15.4225,394.28493125000006,19.85660925863225,-0.35960237627846414,-0.9204093635045894
58,-0.99896484375,0.01139913692474366,0.10676674072361515,1.876709873541434,2.4884696693301835,0.0307275390625,0.003070126795768737,0.055408724906541,-0.009863162902632732,-1.126140847564293,0.7891552734375,0.07349449489116663,0.2710986810944801,-0.41937485490478654,-1.217222900627839,17.874375,159.95550742187504,12.647351794817563,0.26357341186448247,-1.470289741264337,-61.8525,4405.533790624999,66.37419521640167,-0.6216021519889091,-1.0691636175564354,-5.00625,219.59261718749983,14.818657739063273,-0.5987393267046939,-0.46286221309943354
59,-1.0001953125,0.0004757285118103027,0.021811201521472923,0.2925883875524317,-0.6586101346014868,0.1426318359375,0.0004301030397415158,0.020738925713293728,-0.8545540871704358,-0.311193827833264,0.361328125,0.0009735405445098877,0.031201611248618037,-0.8703901806423227,-0.5294960149544572,3.60375,19.517439062500003,4.417854576884577,0.03804301478868335,-1.2704578682510772,4.715625,71.53073242187496,8.457584313613134,0.4313418208492955,-0.962076386248456,1.81375,14.442420312500003,3.800318448827677,0.877454716472142,-0.8836793548864295
60,-0.97984375,0.0008053878784179685,0.02837935655398072,-0.4071489440037504,-0.7255713502030146,0.14521484375,0.00030357837677001963,0.017423500703647923,0.2327970769553483,-0.9203122467279798,0.3503369140625,0.003134611821174621,0.05598760417426898,-0.06673944974141276,-1.2648783622114035,7.025625,14.510632421875005,3.809282402484096,-0.0576335475604787,-0.7088375101350337,40.44625,341.92492343749996,18.491212059719068,0.3083588880407395,-1.625978925118551,1.494375,6.251569921874998,2.500313964660238,0.33559166057089457,-0.6680075819342535
61,-0.91184814453125,0.0023896220386028285,0.048883760479353756,0.24203683560572328,-1.0751961331145794,0.15093505859375,0.0009593067824840544,0.030972677999876835,0.3914478825310302,-1.0067550023131042,0.11234375,0.010932539367675787,0.10455878426835206,0.08201363779826673,-1.4981079348058155,10.614375,47.62156679687502,6.900838122784436,-0.4128399408603967,-0.2837965178893871,94.62875,183.7741265624999,13.556331604180384,-0.3949314453293059,-0.4700140500378662,0.1925,11.292240625000007,3.3603929271738457,-0.2575762095776364,-1.1002555662328426
62,-0.791025390625,0.004231045150756838,0.06504648453803509,0.46236580797561716,-1.188884357567558,0.14857666015625,0.0011205628573894497,0.03347480929578912,0.35093842923251456,-0.8278636783078364,-0.2158056640625,0.021115995430946364,0.14531343857656925,-0.7516527955793149,-1.0112989665169672,-3.865,45.383649999999996,6.736738825277405,0.5573116099930511,-0.5958591882303947,116.954375,184.81756679687504,13.594762476662659,-0.18258160350702998,-1.3555687228782543,-1.300625,15.961226171875005,3.995150331573895,0.009021731054720289,-1.248485729097625
63,-0.51441650390625,0.013661208599805831,0.11688117299122999,0.25620370482739446,-1.5576593506868461,0.182578125,0.002549543046951294,0.05049299997971297,-0.3076051012314234,-1.4516509842756558,-0.76576171875,0.08938550629615785,0.29897408967360006,-0.6593687073407029,-0.9219074107392662,7.534375,178.30026367187514,13.352912179441425,0.016174752526909916,-1.399533254064627,124.6675,145.49342812499995,12.062065665755595,-0.14675788574563475,-0.7453041844498087,5.945,34.91385000000001,5.9087942932547595,0.6970045669804588,-0.7127676061960275
64,-0.356328125,0.006292468881607054,0.07932508355877764,-0.23490884439212034,-1.5497675743680404,0.21863525390625,0.000834818428754807,0.028893224616764517,0.33640083983576313,-0.9718301270497345,-1.58163330078125,0.04010402995944022,0.2002599060207515,0.18517425655659162,-1.28081426705849,-1.106875,210.21119492187503,14.498661832109715,1.088784612790737,-0.165076652753962,-34.90625,4554.4914453125,67.48697241181071,0.49926063411201704,-1.1417145267035795,-9.826875,18.143973046874997,4.259574280004399,0.12872238789213272,-0.9392234751820396
65,-0.3379052734375,0.005421346211433407,0.07362979160253957,0.07231510049074798,-0.965068647871147,0.12773193359375,0.0020554133594036118,0.045336666831645354,-0.18599731498833674,-1.2008706564454068,-0.78794921875,0.10411199846267703,0.32266390945173434,0.7908219275391816,-0.33007852198913445,3.509375,112.99206054687502,10.629772365712967,-1.061426757040766,-0.051131001750451155,-204.93625,2504.490232812501,50.04488218402059,0.14778458709708328,-1.4627680164191823,2.068125,109.10446054687498,10.44530806376121,0.9269284669556067,-0.6326978492323314
66,-0.6627099609375,0.10122632911205294,0.31816085414779255,-0.06503881499164395,-1.6856747753326293,0.13547119140625,0.0056667815387248955,0.07527802826007662,0.5211123920754993,-0.918737907390776,0.81779541015625,0.14842201673388478,0.385255780922084,-0.40164905901204445,-0.9552251550293205,-26.363125,278.171304296875,16.678468283894507,-0.6281316059227212,-0.11098834908636324,-160.61625,7908.749923437495,88.93115271623041,0.4585388948239756,-1.3102576156435817,-0.569375,173.1384292968751,13.158207677980885,0.32805049419481164,-0.8499167005874693
67,-1.01322021484375,0.0004993455111980443,0.022346040168182913,-0.13932311666389322,-0.47947849678438326,0.14766845703125,0.004025438278913496,0.06344634172994922,-0.8297993557521951,-0.24923274756520497,0.4038330078125,0.004721906781196592,0.06871613188470807,1.7557713327062254,3.143397886806862,9.70375,92.25926718750003,9.605168774545298,-1.151267219513853,-0.057696845888613346,-3.291875,36.601332421875014,6.049903505170559,0.1756592993498872,-0.8105481001692381,3.7675,94.60149062500003,9.726329761271721,-0.01724503128513828,-0.7145648299493126
68,-0.96902099609375,0.0004123877227306367,0.020307331748179933,-0.2945853736796798,-0.6388407117869077,0.1578369140625,0.0016582399606704713,0.040721492613489396,0.04456427185602798,-0.6303994587158495,0.322060546875,0.004913214111328127,0.07009432296076572,0.42926582190653323,-1.4795965428544546,5.140625,30.389091796875,5.512630206795573,-1.3598147570643497,1.5683799929929583,2.08375,33.320720312499994,5.772410268899812,-0.4804664872898454,-0.7419070809200639,-1.4075,14.2944125,3.7807952205852144,0.6478416457435605,-0.7381402814716571
69,-1.0154443359375,0.00036451294422149667,0.019092222087056725,-0.041154754140737465,-0.6764069565629116,0.18712158203125,0.00134455606341362,0.03666818871192876,0.17203876055253803,-1.0128292373898038,0.47762451171875,0.006125336140394213,0.07826452670523354,-0.5921880343133756,-0.8285944749531899,-0.10625,22.0683984375,4.697701399354795,-0.8737520388392876,-0.22032103805430747,23.535,727.0047125,26.963024913759213,0.46755168438927597,-1.2506106874508731,0.47875,12.682204687500002,3.561208318464395,-0.8260421359032005,0.9626148763562647
70,-0.89005615234375,0.005026657646894453,0.07089892556939388,-0.2255651286362794,-1.1776908133607742,0.14668701171875,0.0007683969199657435,0.027719973303842547,0.7224189039589988,-0.8498764616266885,0.22911376953125,0.022336000651121127,0.1494523357165124,-0.3702414061062261,-1.2947186609918118,-0.283125,43.84206679687499,6.621334215766108,-0.18888180371806532,-1.219829724082598,116.54125,525.4022046875003,22.921653620267023,-0.34799930319472666,-1.3740427838274956,-6.629375,27.478379296875,5.241982382350689,1.1827523269265678,0.4305233495362568
71,-0.71341552734375,0.0034687952697277057,0.0588964792642795,1.3125764395163464,0.3856349243820558,0.176533203125,0.0028631349563598657,0.05350826998100262,0.16663222444796197,-1.1313029257898646,-0.28400146484375,0.031868673390150065,0.1785179917827614,-0.49962326968867266,-0.6497089795394784,2.3825,145.43064687499995,12.059462959642936,-0.1491907665144269,-1.0740571730284607,148.56625,49.01459531249998,7.001042444700644,0.7260295428071433,-1.118647490237976,0.930625,53.351085546875,7.304182743255743,-1.1783787781819672,0.8623909456561552
72,-0.401962890625,0.006975803756713864,0.0835212772694112,-0.24688644766254494,-1.4765421504537952,0.1496630859375,0.0010465419054031366,0.03235029992756074,0.13118607304748783,-1.3337528250390727,-0.95922119140625,0.03084871584773065,0.17563802506214493,-0.3787460297991252,-1.166002389850561,1.460625,95.81880117187492,9.788707839744474,0.792278653685296,-0.8419550180084929,124.601875,485.37809804687504,22.031298147110512,-0.7591331244842905,-0.020985004078755143,-6.409375,50.60846679687501,7.1139628054183,0.2278964858563777,-0.8330238431745722
73,-0.284013671875,0.0007391773223876956,0.027187815697251143,-1.1204507312547363,1.602247784818294,0.21714111328125,0.0024332035720348367,0.049327513337232363,-0.11769966509307286,-1.4448164784168385,-1.45266845703125,0.011569480484724042,0.10756151953521316,0.18990800475630704,-1.3382976679501952,-2.6675,47.21327187500004,6.871191445084327,0.2946427233782481,-1.0758527730113157,-17.97,3271.877146874998,57.20032470952414,-0.07677764829484797,-1.329098610702005,-2.2575,13.503537500000007,3.6747159754190535,0.08423911008358861,-0.8624334826963418
74,-0.265126953125,0.0015246056556701656,0.03904619899132521,0.37478943039351836,-1.3460342474874973,0.16421630859375,0.004558783358335498,0.06751876300951831,-0.06871757424200797,-0.8429952728693526,-0.800078125,0.14002725157737728,0.3742021533574831,0.2716736401499224,-1.0742426511189354,7.156875,109.62949179687503,10.470410297446563,-0.1553351388715183,-1.1809967167684898,-220.840625,2489.091435546878,49.89079509836336,0.6491274625288519,-0.7541291071329312,-7.37,60.592474999999986,7.784116841363572,1.0149329366798878,-0.2980930239199364
75,-0.75892333984375,0.08489069983363155,0.29136008620542303,0.07971203912123864,-1.4484657179228644,0.10294677734375,0.0017683816611766823,0.042052130281077106,-0.2445749315287924,-0.9546511818467152,0.57522216796875,0.06916358577609062,0.26298970659721765,-0.9977480292226537,-0.17921816626706466,-0.62375,444.7925765625002,21.090106129711632,-0.27248489843911344,-0.8324696774524041,-157.129375,4522.6440824218735,67.25060655802201,0.39114288731685926,-0.9206610686782719,13.1675,105.99170937500003,10.295227504771326,-0.1319405764801225,-0.43662666476416856
76,-1.03521484375,0.0004509617328643798,0.02123585959796259,0.5617957859451196,0.0730433532967476,0.1472705078125,0.0026333076715469358,0.05131576435703687,0.2294929839195534,-0.32944134350091625,0.34300048828125,0.01745946795344351,0.1321342800087983,1.3234063387194785,0.23271376707378533,-1.090625,90.190732421875,9.49688014149252,-0.23359265174433577,-1.139527821927317,-3.83875,105.47220156250006,10.269965996170583,-1.6556488165391858,1.4816938878752124,-6.406875,127.120194921875,11.27475919573784,0.6643359895130624,-1.1178630635442697
77,-0.9697314453125,0.0009094464540481569,0.030157029927500436,-0.15779689691272689,-1.045258838185008,0.1544921875,0.000592780113220215,0.024347076071270138,-0.7457890920205721,0.04267097385503593,0.2106640625,0.0034760812282562253,0.05895830075787654,0.25592075363105593,-1.2081768672239597,5.13625,37.58104531249999,6.130338107519028,0.7894824846165875,-0.5225871227276815,-7.3575,87.58703749999994,9.358794660638727,0.3417880062887132,-1.4702720593199663,-1.4175,27.257412499999997,5.22086319491327,0.7799139959039031,0.5008194879965382
78,-1.011552734375,0.0008920298576354979,0.029866868895742953,0.23189625974320197,-0.4067797465073717,0.14225341796875,0.001126784151792526,0.033567605690494606,0.3182597803292594,-0.11163418051298901,0.43153564453125,0.0035845616519451133,0.059871208873256546,0.1466661138809503,-1.2362872853572664,4.889375,39.967566796875005,6.3219907305274505,-0.13573156182053064,-0.7452187873933562,48.156875,1362.6106636718748,36.91355663806828,-0.15459980145720817,-1.4967977928076908,2.661875,40.787585546875015,6.386515916121639,0.13153634984054585,-1.1239442124710741
79,-0.8884765625,0.0015618979930877692,0.039520855166453185,-0.004936756707248029,-1.1287662192322643,0.150146484375,0.001409118175506592,0.0375382228602606,0.4898483767699851,-1.0727800450857174,0.0128564453125,0.017573062443733217,0.13256342800234616,0.41949656848364547,-1.1194833117832155,17.795625,149.448973046875,12.224932435268304,-0.9330253100227103,0.4055324549110568,120.778125,43.52448242187504,6.597308725675572,0.010485962042173311,-0.5789742394748094,-4.35375,5.992439062499991,2.4479458863504298,-0.22793253511727868,-1.0463754248868815
80,-0.67265380859375,0.004143106573820115,0.06436696803345732,0.30232414563009663,-0.6443061409664419,0.1561572265625,0.002161302304267884,0.04648980860648798,0.5096831553150593,-0.8414568466824881,-0.40021484375,0.020882802104949957,0.14450883054315386,-0.0674455518201192,-1.1248853399560137,-11.5475,25.05547812500002,5.005544738087956,0.7285677004835269,-0.1594966424256654,120.335,10.498087499999997,3.240075230608079,-0.2730890556434372,-1.2003841363273955,-7.823125,37.09109804687501,6.090246140089497,-1.2575241841266775,0.042272279847899163
81,-0.4359716796875,0.0025639589071273805,0.05063554983534178,-0.3871509984813199,-1.0178562847597183,0.178330078125,0.006403566980361939,0.0800222905218411,0.8364107051889665,-0.8853426101833612,-1.0684375,0.04777584300041199,0.21857685833686052,0.6334943973258579,-1.1128844915082972,-11.840625,186.11557617187503,13.642418267003656,0.6005515342222741,-0.8662537029207935,73.810625,1428.9525355468752,37.80148853612613,-0.10153864111568406,-1.6048645733957498,2.41625,51.75798593750001,7.194302324582976,-1.551556355961175,1.320353604068739
82,-0.4111181640625,0.0032645855188369734,0.05713655151334366,0.4170016068583507,-0.9421208596198825,0.3382568359375,0.000856967568397522,0.029274008410149814,-0.9088808942392812,-0.509626022159718,-1.39707763671875,0.010146924561262132,0.10073194409551586,0.20354534894951806,-0.8598805650543886,7.979375,267.15875429687514,16.34499171908249,-0.5810787916645077,-0.8292164122985413,-52.124375,2560.7254292968755,50.60361083259648,-0.21464770354286944,-1.059126675976114,-2.595625,37.04394179687499,6.086373451972446,0.019799386974403116,-1.4740330453475037
83,-0.3411962890625,0.0009046941041946414,0.030078133322974706,0.06860525917893606,-1.2817888805452518,0.0893994140625,0.007486213898658747,0.08652290967517648,0.2782908515368311,-1.076862400108499,-0.5463037109375,0.1422096016645432,0.3771068836080073,0.30348799148636424,-0.9306816968989677,21.20125,238.13738906249986,15.431700783209214,-0.25912321690739915,-1.1782911079972491,-217.195625,703.059894921874,26.515276632950183,0.8076257905192592,-0.7689147669208514,-4.78875,272.1434984375001,16.49677236423841,0.46631741531232374,-1.3709485867317877
84,-0.837353515625,0.07915742993354799,0.2813493023512729,0.4044698363861842,-1.4181448228481877,0.15532470703125,0.014702673310041436,0.1212545805734424,0.9724049010294344,-0.3648033163231972,0.83652587890625,0.06049333822131155,0.2459539351612646,-0.6647011431608453,-0.7596832021119977,-13.135625,933.6408636718751,30.55553736513032,0.16047675472580045,-1.2517437163710767,-115.335,7039.0163687499935,83.89884605136112,0.04099030583368704,-1.6210632356023882,3.666875,307.15891054687506,17.52594963324028,-0.25887320242476064,-1.002646152554961
85,-0.98723388671875,0.0055215922534465785,0.07430741721690089,-0.3136980367337781,-1.1997336436481676,0.1275927734375,0.0010954782724380504,0.03309801009786012,-0.42875627381099946,-0.46228323570828156,0.29761474609375,0.01087902838587762,0.10430258091666582,0.9131463883298393,-0.23753879392625876,3.425625,91.80575742187504,9.581532102011403,0.2589647359835687,0.3378741078002152,6.241875,63.40895742187496,7.962974156800646,0.41135692047185457,-0.6890197311215291,-2.1,56.040078125000065,7.485992126966209,0.0005369753592852709,-0.682764381538445
86,-1.00466064453125,0.0014512027442455297,0.038094655061380066,0.8395036031041678,0.28781475546243884,0.1314306640625,0.0008925225973129271,0.029875116691201846,-0.1193931304300391,-0.8029345772911838,0.30720947265625,0.008721506661176688,0.09338900717523818,0.42795023900610335,-0.7957214358121143,-3.55375,62.00531406250001,7.874345310087691,0.463265652201452,-0.7570481734902232,-6.394375,18.825679296875006,4.338856911316045,1.1835833098490218,1.7118639281525896,-3.315625,4.904951171874999,2.2147124354811845,-0.008198204375968706,-1.4100739424676956
87,-1.007578125,0.0028176831245422347,0.053081853062437775,0.37716738580698667,-0.6996555462397342,0.10740234375,0.001362349605560303,0.03691002039501337,0.808038211084615,-0.8919021195954304,0.40705322265625,0.017754515761137013,0.13324607221654608,-0.556955276732409,-1.1944282586256536,0.7975,57.201103125000024,7.5631410885292905,0.175263663954911,-0.6407252660617897,75.221875,713.1424511718745,26.704727131574938,-0.8638439756143474,-0.36770750279807496,1.19125,44.63615781250002,6.681029697022759,1.7511947622769153,2.270843498372183
88,-0.8381689453125,0.001484866166114807,0.03853396120456353,1.2258468492692116,1.0713870530122769,0.17305419921875,0.0012719548404216763,0.0356644758887843,-0.4242765496608239,-0.6075565009090518,-0.004111328125,0.006748847627639767,0.08215137021157813,0.6652740140575187,-0.6019556866736906,8.365,166.4913062500001,12.903151020196582,-1.0220587624414288,-0.25153790764492756,103.368125,214.335148046875,14.640189481249038,1.0882452906731483,-0.36048836924440364,8.07125,105.38015781249999,10.265483808009245,0.028720207305029617,-1.1290699749219124
89,-0.56940185546875,0.01269819957613945,0.11268628832355537,0.01325292440146906,-1.2230384629091735,0.14164794921875,0.0009925135314464567,0.031504182761126445,-0.4340850003702269,-0.8291346836515721,-0.5173388671875,0.04474796531200407,0.21153714877534885,-0.1670346304392558,-1.0317749968645233,1.145,103.4834281249999,10.172680478861011,-0.006746832942040876,-0.44631493280896484,153.34375,73.9948046875,8.602023290336989,-0.6368170741034959,-0.6839300388041893,-11.56875,9.775039062499994,3.1265058871686127,-0.2520768170913533,-0.6844260847781247
90,-0.24944580078125,0.0072916625201702116,0.08539123210359605,-0.09138354029220734,-1.110781095803747,0.19930908203125,0.0023483927905559544,0.048460218639167885,0.7067613870059826,-0.6473390820029428,-1.36699951171875,0.09207846147418022,0.30344433010715527,0.29874628344696674,-1.4549792388445557,-3.1,66.34210937499999,8.145066566640201,0.051237973033306704,-0.8857116914751519,84.0175,2711.9202406249983,52.07610047444987,-0.4330853838256446,-1.233921439487245,-8.323125,38.62648867187501,6.215021212504026,-0.11474039956948989,-0.9590179747797749
91,-0.21392578125,0.0008398832321166994,0.02898073898500001,-0.07121042450548631,0.3172283355670298,0.174931640625,0.001849574422836304,0.043006678816624566,-0.0010692656860757574,-0.3873345641973658,-1.35419921875,0.03814849495887759,0.1953163970558478,-0.15858197938087432,-0.7188591926366024,9.173125,60.66889492187497,7.789024003164644,0.30995096539890166,-0.9434418496835582,-137.82,5187.2300218750015,72.02242721454896,-0.5022780645030648,-0.6971216757682774,-1.994375,123.33149179687501,11.105471255055997,1.2970394850830205,0.01824667023794424
92,-0.36531494140625,0.014244037932157514,0.11934838889636304,-1.153916376427032,0.252248101050498,0.10498291015625,0.009832277888059614,0.09915784330076777,-0.4597903190592626,-1.2397691128717119,-0.05589599609375,0.2339048366248606,0.48363709186213233,0.3434611716513967,-1.1195217459633673,-5.62375,364.9126546875002,19.102687106464895,0.15443224171525508,-1.0952098896203202,-250.78875,901.9604515625002,30.03265641868032,0.031220501157446224,-1.233252125235652,10.2975,29.19000937499998,5.402777931305337,-0.1314417214545696,-0.9030770935075942
93,-0.9854833984375,0.012412109875679029,0.11140964893436757,1.149786391895847,0.30956844924694815,0.13620361328125,0.006099978560209274,0.07810235950475039,0.508383332728963,-0.9098455923515147,0.77221435546875,0.05880053698420525,0.24248822029988437,-0.18705641077288576,-1.250994393914355,-4.02875,159.02089218750004,12.61034861482822,-0.09901123808233915,-1.0864223821100563,-54.975,4448.171093750002,66.69461067994926,-0.8413013118016813,-0.776408665633221,0.898125,176.40458242187495,13.281738682185964,0.3325944507065235,-0.6371654568600897
94,-0.975,0.0001752305030822755,0.013237465885972115,0.4798656690005714,-0.05428885592056787,0.14635986328125,0.0011340588271617888,0.033675789926322273,0.040487805805636566,-1.4397416033851151,0.2795458984375,0.00030199048519134524,0.017377873436969934,1.4578893174642806,2.694863824441101,2.3725,47.33124375000001,6.8797706175424205,0.01272940726730193,-1.270743297862036,-0.75875,9.8250015625,3.134485852974934,1.2957051291816213,1.2678075221873737,2.51875,20.30839843750001,4.506484043852814,-0.338475879369374,1.3931801646899906
95,-1.0118115234375,0.0007778737306594842,0.02789038778252257,-0.11012040162098043,-1.297042761868708,0.1737548828125,0.0010170370340347287,0.03189101807773983,0.1878979863427238,-0.8816986385946106,0.3775048828125,0.007177420401573186,0.08471965770453269,0.1769010736878187,-1.4288251042181235,-4.243125,43.792179296874984,6.6175659646787794,-0.05562633227586676,-0.4836597531640514,17.356875,300.21463242187497,17.326702872210713,0.8061749678772941,-0.6790272338944159,-3.695,17.096428125000003,4.134782717991358,0.26654413321467596,-1.0384778079567554
96,-0.95974853515625,0.006492355650663375,0.08057515529406924,0.2522477849489945,-1.3891158578196083,0.137548828125,0.0012146008014678954,0.03485112338889373,-0.5717389381053241,-0.8382035964715762,0.24095947265625,0.03011200839877129,0.1735281199079022,0.46926477872305106,-0.6508836383035805,-0.7825,101.10534999999993,10.055115613457655,-0.5364282106137036,-0.8965309461842259,106.004375,97.55150429687502,9.876816506186344,-2.5578551575634276,6.258632534747058,-6.0175,40.532740625,6.366532857450749,-0.3878457155697896,-0.8207546943815127
97,-0.722578125,0.0029281960487365704,0.0541128085460048,-0.3774602778924009,-1.408208689914505,0.1133935546875,0.002274109625816346,0.04768762549987519,-0.9153423700092448,-0.4866668844267372,-0.15233642578125,0.01082776362299919,0.10405654051043206,0.019963917415090064,-1.3831870544799665,11.859375,33.030185546875,5.7471893606244615,0.2418131638134366,-0.8946554696573457,118.48125,92.0122265625,9.592300379080088,-0.2020905407887325,-0.9268588459540146,-4.23375,38.36106406250004,6.1936309272106325,-0.5589904251221343,-1.0157253624886105
98,-0.4923583984375,0.019827283024787902,0.14080938542862795,0.6338708854292813,-0.6803949971182357,0.09958740234375,0.010993579739332206,0.10485027295783357,0.47402120741334414,-0.5419073012193025,-0.70758544921875,0.05271252376437185,0.22959208123184877,-0.23103757531082336,-0.6369915671747828,-15.87625,100.06179531249998,10.003089288439845,-0.5247597279525569,-0.32038852782889693,142.266875,76.89209804687502,8.768813947557277,-0.4699659702901657,-1.0509691866968676,16.369375,241.25867929687493,15.53250396094831,-0.6749901272281973,-1.046106324060736
99,-0.14821044921875,0.010340787476301197,0.10168966258327931,-0.7532842890386778,-0.8011555280302911,0.354990234375,0.003947693014144898,0.06283066937527323,0.17963968694651536,-1.463863676338652,-1.59599609375,0.0502316904067993,0.22412427447021283,-0.03243861621114065,-1.245497844100984,-6.639375,162.73709804687505,12.756845144739943,-1.3349575840595456,1.0327907597903607,24.805,7767.828771875003,88.13528675777371,-0.06994625536675043,-1.7012011460799517,-10.263125,98.72439804687501,9.9360151996097,1.13229320974836,-0.25287494975175306
100,-0.27645263671875,0.00098063513636589,0.03131509438539009,-0.5620794523989197,-0.6340994838536473,0.1904052734375,0.0062840276956558205,0.0792718594184331,0.17863621008472128,-1.0825066831075232,-1.0246240234375,0.08799979450702665,0.2966475931252884,0.454611817340497,-1.4154555983035269,30.301875,124.30398867187495,11.149169864697324,0.7200596774001402,-0.6038647252291396,-179.285,3647.8489312500024,60.397424872671536,0.1749741188354637,-1.5276580465085898,-10.08625,64.2674046875,8.016695372003355,0.6197496260556921,0.06561960350030605
101,-0.501103515625,0.04635487494468689,0.21530182290144895,-1.0226573282557176,-0.02515634326885685,0.12201416015625,0.0037099776923656485,0.06090958621075707,0.17800720172679477,-0.723897715980351,0.31922607421875,0.2109019117057322,0.45924058151009717,-0.22608203064290822,-1.3096160028304473,5.01875,1815.4791796875,42.60844024002169,0.01119079650575308,-1.2581471888208253,-215.830625,2160.7084605468754,46.48342135156227,0.37618637769317115,-1.0162717170860924,10.568125,478.2050074218748,21.867899017095237,-0.2878694623333487,-1.3068797500098353
102,-1.0589208984375,0.0008313408136367793,0.028832981351861263,-0.38393704106070525,-0.597571761109402,0.09723876953125,0.0036936179339885733,0.06077514240204274,0.24853237009970855,-0.7802524384045069,0.58199462890625,0.03679295703768728,0.19181490306461405,0.15651498817748358,-1.6310076478339417,-6.2825,133.12855312500008,11.538134733352704,-0.18982126797716548,-1.5409493968927244,-26.1175,1491.7618187499997,38.62333256918672,-0.8180538524735605,-0.6668376123693083,-0.8175,28.422631250000006,5.331287954143915,-0.47917217870288525,-0.3377395394095486
103,-0.98283447265625,0.0007148870170116423,0.02673737116867779,-1.1495570895817433,0.6795291972583493,0.10717529296875,0.0020157688796520233,0.04489731483788338,-0.15488101211567187,-1.4472044017314745,0.30044677734375,0.0010418565928936002,0.03227780340874515,1.8930960827377672,3.5821982330037025,-10.074375,47.90606992187503,6.921421091212052,-1.0845043213964638,0.11289035832953287,7.795,15.708365625,3.963378057289009,0.43169405863389676,-0.7627587171492003,-3.4525,9.747509375,3.1221001545434124,-0.2920558479069934,-1.067001171972469
104,-1.0265869140625,0.0008217173814773557,0.02866561322346612,-0.2313227929160937,-1.0774253981640585,0.09940673828125,0.001852566069364549,0.04304144594881251,0.7424236704362053,-0.8717003029515893,0.384609375,0.004555783891677857,0.067496547257455,-0.15984352532275675,-1.5376009558433879,5.33,115.26016249999995,10.735928581170795,0.44143150851410295,-0.7502403266745485,58.595,858.9040218749999,29.307064368083676,-0.02449751588466757,-1.2739208036379577,-0.59,63.0399468750001,7.93976995101244,-0.2171194868579596,-1.00817408116979
105,-0.867236328125,0.004831943511962889,0.06951218247158471,-0.029831807947328686,-1.2101383533370995,0.12365966796875,0.0044602745711803445,0.06678528708615651,-0.09870219056030338,-1.2078508748365464,0.019912109375,0.018846249961853027,0.1372816446647294,0.4627368707617904,-1.1415478241293706,-6.351875,157.33130117187497,12.543177475100755,0.6412078127435609,-0.8443822921423734,127.245,75.73325625000003,8.702485636299553,-0.1677368723499766,-0.7154084019775793,3.005625,77.09375742187498,8.780305087061326,0.28140956745177886,-1.254778810403019
106,-0.60030029296875,0.01037991291880607,0.10188185765290143,0.19947716274118343,-1.4891313924983702,0.102041015625,0.001289099359512329,0.03590402985059377,0.8804209712305969,-0.316059512821123,-0.4284326171875,0.01996923091411591,0.14131252921845222,-0.295962207175211,-1.2420055159645405,6.36875,85.8541796875,9.265753055607515,-0.12882726067403527,-0.4550026827850764,135.131875,42.442023046875,6.51475425836424,0.969472237884778,-0.0885153960864895,1.914375,18.681769921874995,4.3222413076869035,-0.16975749738792728,-1.3206115766756443
107,-0.29890869140625,0.007412689989805222,0.08609698014335475,0.2761976465183038,-1.1703883557985981,0.16445068359375,0.0010154033839702605,0.03186539477191928,-0.37086682473374066,-0.8202536807231202,-1.10071533203125,0.09535749608874322,0.30880009081725224,-0.4772681064300438,-0.7893309568377851,-7.469375,79.04808554687501,8.890899029168818,-0.3558848048573538,-0.7745012398697146,109.98625,333.06481093750006,18.250063313246343,-1.4407050487833608,1.9432378978650577,-19.32625,70.35301406250002,8.387670359670796,-0.5791086567944003,-1.0154429406417307
108,-0.2183740234375,0.0009278970003128051,0.03046140181135473,-0.32728219486336535,-0.8508727726983394,0.16151123046875,0.0016286353766918201,0.040356354848918405,-0.3646853461052576,-1.1177108232871409,-1.52286865234375,0.04290201670527458,0.20712802008727496,0.22570713135611295,-1.6561211379160126,9.0975,75.91408749999998,8.712869073961802,0.1881915410624351,-1.244741013208521,-70.799375,3112.1690855468755,55.786818205978335,0.4115393635851489,-1.008372915516032,-2.326875,29.48444179687498,5.429957808019781,-1.8150073993233955,2.707647779180986
109,-0.22092041015625,0.0020024763286113734,0.04474903718083076,-1.933369796766055,3.8890068071911754,0.08336181640625,0.008621925562620158,0.09285432441529128,0.4091083405023688,-1.2648062466660352,-0.60017822265625,0.19875494844317437,0.44581941236690714,0.8415061574009813,-0.3097739470470162,37.51875,1108.7308203124999,33.297609828822544,-0.8336384106212973,0.9454999363463599,-253.19,1974.5866343749983,44.436321116570824,0.3338014006660353,-1.1751727446834497,22.973125,324.32783242187503,18.009104153784968,0.346993343076541,-1.2507424313120918
110,-0.8654833984375,0.040672528719902,0.20167431348563455,0.8283439701645672,-0.75537603984586,0.14363037109375,0.005585940712690356,0.07473915113707377,0.24402306571701612,-0.5085290097049193,0.79443359375,0.03526674747467041,0.18779442876366276,-0.18236972513968022,-1.3240217993780767,-9.6925,671.6195843750004,25.915624329253586,-0.424855431403694,-0.7657562138287579,-109.121875,7185.529091796879,84.7675002096728,-0.29348005992665377,-1.2522428908945489,15.79375,93.79855468750002,9.684965394233478,-0.9959115334467613,0.4112768412620511
111,-1.02765869140625,0.0008576503932476041,0.029285668734853984,-0.30833480117764656,-1.324496547549722,0.1535595703125,0.0008384322881698609,0.028955695263106027,-0.024199131998436717,-1.2437781565554449,0.2512109375,0.002293358945846558,0.047889027405519084,1.2777711387422304,2.107385464192605,2.470625,21.326285546875003,4.618039145229824,0.3878625991421031,0.39448935006923547,3.69875,27.45385781249999,5.239642908872702,0.2080942450808562,-0.6811297735449942,2.418125,19.158413671874996,4.377032518941914,0.06327141126380366,-1.0447279061442292
112,-1.01141357421875,0.0006649605929851532,0.025786829835890125,-0.459303443570943,-1.0537453945497293,0.161962890625,0.0009473395347595212,0.030778881311047047,0.477626983503887,-0.6021069507992873,0.340185546875,0.0048174953460693335,0.06940817924473551,-0.05626493527582272,-1.459148770123095,-0.080625,45.02986679687501,6.710429702848769,0.19806099853748493,-1.1940021338450126,22.694375,319.25944492187494,17.867832686755126,0.9504486822604263,-0.005618435566706381,-6.03875,25.4781859375,5.047592093018214,-0.39622110721000514,-1.2514243183060763
113,-0.9595654296875,0.0018107077836990362,0.04255241219600877,0.27242016672073877,-1.3575579757788634,0.14382080078125,0.0021742190062999734,0.04662852138230392,0.7500514081513826,-0.5195851945488807,0.14002685546875,0.010657799690961828,0.10323661991251859,-0.06936129873534726,-1.0380744981081325,-15.005625,114.80555429687506,10.714735381560995,0.5739526016176832,-0.027798497639510256,91.550625,184.87919492187498,13.59702890053099,0.09561835184849081,-1.542058360947973,-11.200625,43.22010117187502,6.5741996601772765,-0.8067973293926102,-0.31916597064928176
114,-0.73842041015625,0.0060642722308635755,0.07787343726113273,-0.02583430685022484,-1.290567300013234,0.08849609375,0.0015845030307769772,0.039805816544532496,-0.2275561163609727,-1.4467947658649893,-0.2524853515625,0.017910607314109796,0.133830517125616,-0.3692220326919153,-1.2931148618257409,-20.859375,154.510810546875,12.430237751019689,-0.3873176238901548,-1.0491043860588938,129.3425,119.28230312500006,10.92164379225948,0.08155803096415054,-1.6541092184511732,-20.258125,57.689582421874995,7.5953658517463785,-0.7112626097566705,-0.8670376122185361
115,-0.441962890625,0.00634707341194153,0.0796685220896028,0.1896499773362912,-0.6408710732374923,0.09734619140625,0.005187752074003217,0.07202605135645863,0.2648449579751174,-0.5765603540334876,-0.76646728515625,0.021680195778608326,0.1472419633752835,0.3742594101299548,-0.4900469404893504,-22.988125,450.5049761718751,21.225102500856742,0.28170705670087337,-1.1993122744001863,138.9075,163.13136562499997,12.772288973594357,-0.13686878927531979,-1.1940112776914056,0.940625,91.10495117187502,9.544891365116474,-0.04577351013472505,-0.9684169476092155
116,-0.05402587890625,0.017532326334714878,0.13240969124167187,-0.9005199825179133,-0.6596603934582048,0.21499267578125,0.001189515465497971,0.03448935292953423,0.16979493815413957,-1.3581819245168836,-1.608046875,0.07417914786338803,0.2723584914471881,0.8147717323639256,-0.7713610227853485,7.85125,160.32826406250007,12.662079768446416,-0.5155488349690621,-0.9762984548823006,16.123125,7162.370035546879,84.63078657053164,-0.4037119581986326,-1.219448163775031,8.639375,29.26233242187501,5.4094669258509205,-0.10274619774112938,-1.2588791641559072
117,-0.2465576171875,0.006445283293724062,0.08028252172001114,0.8151128373466185,-0.41022101095298114,0.14336669921875,0.0014840982615947729,0.03852399591935879,-0.3343331893214156,-0.9331577501361554,-0.882236328125,0.10543176236152652,0.3247025752308203,-0.22130488711696203,-0.8500904436151862,25.63125,103.8913671875,10.19271147376889,0.33563681572424947,-0.2292042155779197,-216.803125,1047.9341699218746,32.371811347557845,0.10925693674968545,-0.9822799221408336,11.018125,51.652366796875015,7.186958104572129,1.0947556063312318,-0.12737923267361806
118,-0.54590576171875,0.041063976830244056,0.20264248525480547,-0.8753625315069004,-0.19034444857629662,0.1206005859375,0.0029598307371139524,0.05440432645584313,-0.41492520260838417,-0.7868361682129614,0.42751953125,0.18014741930961606,0.4244377684768593,0.27202874920837916,-0.9057317715753839,13.994375,126.07899179687502,11.228490183318282,-0.11698050958655827,-1.0520234822583592,-218.149375,900.1453042968745,30.002421640542195,0.6477415520139462,0.4111444405718192,12.234375,167.715185546875,12.950489780192678,-0.6103065366051422,-1.045094888702702
119,-1.05333984375,0.0024255829811096166,0.049250207929607936,-0.07996068205226675,-1.2343438465175298,0.1585693359375,0.0013615769147872925,0.03689955168816137,0.36394380263548776,-0.20973600466387854,0.6354345703125,0.09367108180522919,0.3060573178429642,0.5457078104723108,-1.2576555118374375,-1.18375,130.93311093750003,11.442600706897887,-0.18853989637803956,-0.48353583636176234,-11.491875,1291.7284886718758,35.94062448917486,-1.633622486738747,1.5688922794548992,-0.309375,54.74471679687496,7.398967279078544,-0.07448511042128206,0.3559986314999164
120,-0.96224853515625,0.0005100818336009976,0.022584991334977253,-0.5111253694389581,-0.036266933737260754,0.133359375,0.000840262317657471,0.0289872785486577,-0.11721625634122064,-0.940699191912556,0.34157958984375,0.0019861446559429168,0.04456618287382168,0.3714065467155583,-0.6770371801047075,0.146875,16.706123046874996,4.087312447914276,-0.9499654119591312,-0.14989826768651104,0.678125,9.883466796874997,3.1437981482396413,0.12287204852929537,-1.3845257189488676,0.873125,11.597613671875,3.4055269301350415,-0.8921293383533836,-0.21499788738187142
121,-1.02418212890625,0.0013614766299724578,0.03689819277379934,0.49458461663047193,-0.05230771163351866,0.13093505859375,0.0009531232059001922,0.030872693531666332,-0.5379446551520141,-0.3589982803648444,0.57157958984375,0.01687132083773613,0.12988964869355882,-0.4681214851212374,-1.0236290224804676,-4.060625,59.385426171875,7.706194013381379,-0.38112756193567016,-0.7636338525993045,67.98625,2218.8867640625,47.10506091772412,-0.1083994694908811,-1.5131670055863147,-3.195,10.797678125000003,3.2859820640106974,0.17520430512375113,-1.3381046860352348
122,-0.715068359375,0.015038237190246582,0.12263049045912922,0.0980192919978677,-1.1980057091819405,0.118701171875,0.0010326278209686279,0.0321345269292801,1.4347576996485134,0.7991917476233801,-0.07930908203125,0.05522674962878222,0.23500372258494592,0.1123289512225838,-1.198281761732247,-4.106875,46.187991796875004,6.796174791518756,-1.0308050028045552,0.260395939732013,157.26875,59.835351562500044,7.735331380264199,-1.1920109607670966,0.46106312626987656,-12.159375,58.69338867187494,7.661161052469459,0.7303055241636782,-0.13429488288293667
123,-0.436513671875,0.0013167034626007088,0.036286408786220616,0.32044967340460573,-1.119904061869447,0.11263427734375,0.0008281211555004118,0.028777094285219483,-0.08681597311208089,-1.0516816976378163,-0.74170166015625,0.014249914282560346,0.11937300483174722,0.9431554956808957,-0.5748239999698908,-15.378125,44.088935546875,6.63994996569063,0.04991856211981814,-1.3372893571115942,117.42875,714.1085953125001,26.722810393229604,0.1250251814316843,-1.7121950851992305,-5.61875,52.03300781250001,7.2133908678581955,-0.5347420100078775,-0.6547611814436496
124,-0.41001220703125,0.015939711445569996,0.12625257005530618,0.3140433281742613,-1.459961616661191,0.18426025390625,0.001379448002576828,0.03714092086333924,-0.05627730654728766,-0.7487770383489485,-1.25888427734375,0.11479632722735411,0.33881606695573646,-0.2511475120134702,-1.6221859130757397,-1.30375,123.74734531250016,11.124178410673759,-0.5616908079956926,-1.019804960569396,61.7425,1223.8372875,34.983385878156504,-1.2685439551055495,0.2695086359921657,9.273125,14.10997304687499,3.7563244065009864,-0.5270838475304835,-0.3233420574102892
125,-0.26078125,0.0017091187477111813,0.04134148942298985,-0.1326480778306269,-1.1539085863350744,0.17619140625,0.0036919473171234123,0.060761396602805405,0.08185236877194361,-1.319630724525625,-1.28680419921875,0.06341362759470939,0.2518206258325743,0.00035994845933275956,-1.4881973046744927,10.984375,68.963623046875,8.304433938979527,-0.6027988262685661,-0.7325876622292329,-116.1625,2544.116796874998,50.439238662721685,0.3376576540801711,-1.1134866252925626,-1.549375,18.106819921875015,4.255210913911908,0.857280459399101,-0.28443824568727427
126,-0.419296875,0.0009682516098022458,0.03111674163215432,0.8445995638870388,0.10962652741021772,0.1097265625,0.0008866123199462883,0.02977603600122569,0.06833817641382764,-0.7867649111151827,-0.30620361328125,0.12323545252680777,0.3510490742429152,0.41588996341512635,-0.7163047803764679,6.798125,29.808113671875002,5.459680729848129,-0.5673641850801739,-0.8285401829217234,-226.586875,155.00874179687497,12.450250672049739,0.7002432713170619,-0.8747411665038869,6.1175,17.73869374999999,4.2117328678348045,-0.13588585603280662,-1.1659651569555527
127,-0.8264111328125,0.03611168978214265,0.19003076009462955,0.27720596941326825,-1.1852860532580816,0.1060595703125,0.0020843651056289686,0.04565484755892816,0.181434656466636,-0.7078147688884759,0.76182373046875,0.01051499158740044,0.10254263302354022,-0.33337307382824816,-1.0959084792444045,-1.5825,150.1285062499999,12.252693836458981,-0.1398567475586687,-0.4364325128437665,-107.414375,4022.069660546874,63.4197891871841,-0.31439618058605245,-1.09500303731079,-6.8275,48.17977499999994,6.9411652479969055,0.6007247252493791,-1.1801623158407444
128,-1.01785400390625,0.0052559562385082245,0.07249797403037014,-0.39885117332098635,2.5562757470844133,0.09679443359375,0.005600017851591107,0.074833267011344,-0.2261763112702209,-0.504067130834672,0.52836181640625,0.007627704209089278,0.08733672886643555,2.1837346465957546,4.596193259856366,9.294375,140.26580429687502,11.843386521467371,-0.950335968111168,0.07165167798871819,-10.000625,245.59777304687503,15.671559368705944,0.6661158996645626,-1.2030547217327054,10.76375,102.66402968749992,10.132325976176444,1.3726666618909895,2.7261300203835024
129,-0.98712158203125,0.0018701128661632537,0.043244801608554685,0.2936054165091347,-1.213603941793445,0.13170166015625,0.00118322417140007,0.034398025690438545,0.4612671195710693,-0.48354045763740805,0.44650634765625,0.00716768609881401,0.08466218812914068,0.9270719597578847,-0.3121822292919658,-4.52,40.82217812500003,6.389223593285809,0.1121093731506823,-0.8051945911290201,11.4625,16.211249999999993,4.026319659440864,0.40034048035670156,-0.030639512310507655,-6.6475,9.125899999999994,3.0209104587855617,-0.3524410457073976,-0.7521972312120737
130,-0.94303955078125,0.010251379841566082,0.1012490979790244,0.6540320789309857,-1.112145616242799,0.1191015625,0.0014588376522064212,0.03819473330455943,-0.6883348981497449,-1.2141079588639083,0.52341552734375,0.020532606953382486,0.1432920338099173,-0.8399616282913448,-0.9179085908907103,10.684375,134.49956054687505,11.597394558558188,0.14055337477016935,-1.6382170429168137,79.09875,1040.7000921874999,32.25988363567823,0.023064758838009777,-1.4949005371311088,-5.513125,7.815179296874996,2.7955642179844475,0.056227986680358034,-1.4627825795971312
131,-0.75611083984375,0.0046543090999126395,0.06822249702196952,-0.7357025667745317,-0.9197367944236383,0.07812744140625,0.0011324137389659885,0.03365135567798107,-0.169969701600083,-0.9251808474180421,0.0419970703125,0.018966903662681583,0.13772038216139826,0.7063932931512191,-0.8967197553859676,-5.354375,91.91851992187505,9.587414663081756,0.0451868558239187,-1.0566919478161068,137.163125,187.40842929687497,13.689719839970246,-0.49068711226743794,-0.4778050642163274,-7.53625,28.042279687500024,5.29549617009587,-0.6160274318899249,-0.6398625473604227
132,-0.4279150390625,0.01593187882900238,0.12622154661151314,-0.25784716510822625,-1.3732431794067523,0.1823095703125,0.019114701294898992,0.13825592679845228,0.16688691411344553,-1.323467437290409,-0.71250244140625,0.2063566209018231,0.45426492369742033,0.0018603487012964367,-1.6379527691233533,-3.773125,833.0134886718755,28.861973055767958,-0.227639731928424,-1.324632527345783,185.259375,1668.2526855468757,40.844249112290896,-0.652931815645066,-0.57313142164976,7.81875,179.1534765625,13.38482261976228,0.676499396123302,-0.8666450008161486
133,-0.32270263671875,0.012428603523969649,0.11148364689033835,0.7002923306449732,-1.045175542277774,0.12496337890625,0.020092093199491515,0.14174658090935216,0.29497459155278405,-1.207691914314023,-1.42674560546875,0.025240538567304623,0.15887271183971344,-0.7524651243570162,-0.8992160716135222,-11.186875,185.64121054687482,13.625021487941764,-0.28242232904698017,-1.0385252875118165,34.74625,1401.0961578125,37.43121902653586,-0.28772844288688304,-0.7253214139781501,-14.355,910.2785843749999,30.170823395707977,-0.02706738287408635,-1.4906729434540245
134,-0.27328125,0.004343598508834839,0.06590598234481328,0.2738412017670339,-1.302535858541425,0.1669287109375,0.014751750969886783,0.12145678642993475,-0.1883652941397196,-1.1670340229325182,-1.17477783203125,0.09781616317629811,0.31275575642391956,0.13281148984841445,-1.1009827346481054,4.499375,81.94996054687506,9.052621749906216,-0.446047741854917,-0.9848031861530182,-146.595625,1936.5785511718757,44.00657395403414,0.4253897537792282,-1.0885874919287502,-6.990625,216.54440429687492,14.715447811632336,0.5286053285647456,-1.1521265038635722
135,-0.42382080078125,0.02342296773791314,0.15304563939528998,-0.8132152429551245,-0.342225795579306,0.06187255859375,0.016714357441663732,0.12928401850833587,-0.3820634148566154,-0.4921644607564257,0.0260888671875,0.2249083757638931,0.4742450587659223,-0.0458747601883325,-1.565894528839083,7.971875,1304.5465136718744,36.11850652604388,-0.9655101050761836,0.04290460286187647,-226.271875,494.835498046875,22.244898247617925,0.17677047280727917,-1.550219674677761,17.0475,210.14618124999993,14.496419601060115,0.1431062451385109,-1.1573105214081794
136,-1.01594482421875,0.004869538182020191,0.06978207636650109,1.0539727224977058,0.6261784376314794,0.2163134765625,0.007851431345939639,0.08860830291761398,-0.7925362778907218,0.22244986041995585,0.690830078125,0.13641820850372316,0.36934835657374077,0.13123880397076215,-1.310371620684275,4.86375,1359.954560937501,36.877561754236154,-1.5401244076479157,1.0102266843740502,-47.890625,4925.437529296875,70.18146143602935,-1.0799273526246016,-0.3512333292328189,11.918125,190.39224179687488,13.798269521823194,0.20348716233035335,-1.3694978573804906
137,-0.97183837890625,0.0017311482131481173,0.04160706926891291,-0.1073402316748282,-0.8603555376636058,0.19170166015625,0.003635380619764329,0.060294117621575063,-0.20508072619635492,-0.6110746147603248,0.27721435546875,0.014486884421110156,0.12036147399026881,0.09209369626168745,-1.3953749978153966,5.70875,79.41157968749998,8.911317505705876,0.5904402137974083,-0.935063464870669,5.4575,131.23217812499993,11.45566140059141,-0.41409307991339506,-1.297794751647533,-5.950625,63.43463242187506,7.964586142535911,-0.2745149867800345,-0.6028833620851217
138,-1.023974609375,0.0020916879177093504,0.045734974775431446,0.027689720759240512,0.18982218420604946,0.22046875,0.003020993375778198,0.054963564074559414,0.5398401450882669,-0.8766617889648112,0.327021484375,0.014852650737762447,0.12187145169301318,0.5638963711767364,-0.4147683989083677,2.940625,96.94229492187496,9.845927834484415,0.24079308881123124,-1.4421149625123386,-3.404375,123.63870742187503,11.119294376077784,0.7722239277178813,-0.28753286538662026,-3.48375,15.341923437499991,3.916876745252522,-2.0002908219067623,3.635540089939256
139,-0.94947021484375,0.0157010477244854,0.125303821667519,0.06186879156279752,-1.3666350123258684,0.15518798828125,0.0033316127955913518,0.05772012470180008,0.6769929635519789,-0.5732687564927827,0.3725537109375,0.06968537447452547,0.2639798751316575,0.2330875937594464,-1.5651942759490058,-4.975625,112.40530429687493,10.602136779766376,0.8400256955528596,-0.6374957162058883,106.021875,915.695029296875,30.260453223586637,-1.2274080763922584,0.3556307263835623,-19.9925,35.9751,5.997924641073777,0.8339591732896698,-0.5211538511535472
140,-0.73765625,0.0029219750404357926,0.05405529613678749,0.020889186513593994,-1.4346859992779522,0.08337158203125,0.006795465344190601,0.08243461253739597,0.3235003127591722,-0.9874884535243575,-0.1417578125,0.005383053445816042,0.07336929497968507,0.5967230052573762,0.8148753921333869,-7.69625,333.3613296875002,18.25818527914262,0.7887021873277076,-0.34515611639488286,116.92625,384.3997953125,19.606116273053672,-0.07650157900836216,-1.3228744934764292,-11.2425,72.72611562499995,8.527960812820375,-0.09517584518262652,-1.2498442101280722
141,-0.29500244140625,0.06138016588091848,0.24775020863950545,0.17066615007421584,-1.3594860257684391,0.11088134765625,0.0003653002440929413,0.0191128293063309,0.18652326312241868,-0.6928377903787286,-0.65639404296875,0.13402096521258366,0.3660887395326216,-0.5023309613565224,-1.1389545810335215,-7.699375,122.28099179687503,11.058073602435238,0.37424776891729217,-0.26323327180413836,198.911875,717.2199292968753,26.780962068172148,-0.3608562601076253,-1.2856053806427887,-13.91,37.700259375,6.140053694797791,0.6411689236470544,0.009590847534300728
142,-0.00791748046875,0.01345790655016899,0.11600821759758656,-0.36641428942751625,-1.3514227907830134,0.050703125,0.002049908494949341,0.045275915175171676,0.2617516920014474,-1.1352244472065132,-1.6846533203125,0.023918161654472362,0.15465497617106397,0.4199304375270114,-0.841602495051422,4.73375,324.68770468750023,18.019092782032626,-0.15885527737318553,-0.7497840257924238,10.37625,7162.737732812499,84.63295890380118,0.3580476252310422,-1.3462855588514866,2.285625,57.869082421875035,7.607173090043044,-0.6544473709827751,-0.8173806797889078
143,-0.22255126953125,0.0007556179225444791,0.027488505280289052,0.7250951325235877,-0.5186278551806529,0.07714599609375,0.0013330405890941623,0.03651082838137423,0.07756423554791102,-1.3031890592049875,-1.2522802734375,0.05879204657077788,0.24247071281038846,1.4041964625107453,1.0257396396664635,-1.52125,454.7668921874998,21.325264176265197,0.412561516998585,-0.988638673395966,-165.243125,3727.548741796875,61.05365461458368,-0.2978524098901931,-1.319257449766834,8.89625,73.09603281249997,8.549621793535664,-0.4440194414380902,-1.0907683856202803
144,-0.24925048828125,0.05817297727465629,0.2411907487335621,-1.6722720380369076,1.8210349192344415,0.17125,0.01198493399620056,0.10947572331891925,0.04061726802213019,-1.4046379798775825,0.17116455078125,0.4394157208144668,0.6628843947585935,0.4681235768628991,-1.3149410564946922,10.3425,1454.3562093749995,38.13602246400376,-0.00428761841742321,-1.5895711572689795,-235.31375,507.4313265625,22.526236404745912,-0.022878338323094473,-0.28157386596169864,21.42375,782.3624671875004,27.970743057478835,-0.43845362271912997,-1.001702040337625
145,-1.0734912109375,0.012580993151664735,0.11216502641940015,-0.7577878011360197,-0.7699399436770236,0.12529052734375,0.006942094200849533,0.08331923067845462,-0.45639269023955953,-0.8076592666951048,0.51672119140625,0.20916626750826844,0.45734698808264657,0.6496808643884147,-0.9130945283757566,9.781875,769.9056636718752,27.74717397631469,1.2002263563497861,0.1136719122735923,-24.080625,2286.949866796874,47.82206464381138,-1.7128821985801144,1.710178971966494,-0.83125,167.72910156250012,12.951027046628392,-0.20588120257227674,-1.0780962897520225
146,-1.02662841796875,0.0011839607417583468,0.03440873060370502,0.21629905842823646,-1.11662791599448,0.13718505859375,0.001172578448057175,0.03424293281915518,0.03298777804431151,-1.0151530081898297,0.2340576171875,0.0022575491666793836,0.04751367347069035,-0.49746290419254174,0.4649356397235098,-9.77625,71.62157656249998,8.46295318210493,0.46289800258520625,-1.0275188567359124,-10.79375,115.26003906250014,10.735922832365187,-0.39765601814813323,-1.5363265074715637,0.904375,7.562926171874991,2.7500774847038385,0.22275225832893403,-1.2958066309293639
147,-1.0917236328125,0.001498364806175233,0.03870871744420413,0.4521326176593656,-1.1289917625740014,0.09252197265625,0.004537205046415329,0.0673587785401081,0.2920274149341609,-0.8608453326558081,0.3474462890625,0.0027710914850234965,0.05264115770975688,-0.33769261705077197,-1.0464643819267059,-4.536875,20.994304296875,4.581954200652272,0.7416634446952054,1.3518542024369893,31.32375,648.6158109374995,25.46793691953668,0.2594061760618297,-1.4159090940200223,-7.84625,33.3375328125,5.773866366006405,0.6597531077636262,-0.12508784697348752
