ventana  acc_x__mean  acc_x__var  acc_x__std  acc_x__skew  acc_x__kurtosis  acc_y__mean  acc_y__var  acc_y__std  acc_y__skew  acc_y__kurtosis  acc_z__mean  acc_z__var  acc_z__std  acc_z__skew  acc_z__kurtosis  gyro_x__mean  gyro_x__var  gyro_x__std  gyro_x__skew  gyro_x__kurtosis  gyro_y__mean  gyro_y__var  gyro_y__std  gyro_y__skew  gyro_y__kurtosis  gyro_z__mean  gyro_z__var  gyro_z__std  gyro_z__skew  gyro_z__kurtosis
1  -0,81251708984375  0,0012024739444255821  0,03467670607808046  -0,46431352078747  -1,3740151527265523  0,080068359375  3,417124748229982e-05  0,0058456178015929006  0,2671810449701798  -0,8635892828261666  -0,4191162109375  0,0004337388277053833  0,020826397377016106  -0,23289564332296347  -1,4989906905309756  -6,766875  12,185301171874997  3,4907450740314734  -0,06474734154511293  -1,3541302916056814  19,050625  7,848335546875001  2,801488095080006  -1,0909195244258965  0,11030831922425133  -2,688125  1,9125386718750002  1,3829456503691677  -0,8774615277440982  -0,4055905285046504
2  -0,77627685546875  0,00040658790469169626  0,020164025012176914  -0,19959028346297686  -1,2235264497880918  0,07644287109375  8,738505244255069e-05  0,009347997242326865  0,09437749123765773  -1,1245980576285302  -0,49185546875  0,0034746581554412816  0,05894623105374322  -0,14401142073683657  -0,32464923675597834  12,04875  91,07973281249996  9,543570234063349  -0,5152041960494655  -0,23328575022428888  30,54625  10,5470796875  3,24762677774094  0,6649070971258679  -0,5216184599565015  -5,10625  3,4941015624999987  1,8692516049210708  0,021423549276458915  -1,4521614079987266
3  -0,82155517578125  0,0007025016486644745  0,02650474766272025  0,21839555456429613  -0,8043485386438807  0,03985107421875  0,00025446159243583687  0,01595185231989805  -0,5826200592689491  -0,40874910445569723  -0,74337158203125  0,01244412705302239  0,11155324761306767  -0,25625868015172243  -1,4355483807969747  -0,816875  327,97876992187537  18,11018414930879  -0,34953637531174675  -1,2256684730843614  32,700625  6,196351171875001  2,489247109443938  -0,07371627872344529  0,18638520500830813  1,300625  14,282007421875008  3,7791543262845204  -0,4416837237022085  -0,4544957973156176
4  -0,68907958984375  0,001176386421918868  0,034298490082201406  -0,3421033512806775  -0,935024648542679  0,06888427734375  0,0003592233359813692  0,01895318801630399  -0,05474416567213603  0,3591699372636934  -1,0125830078125  0,008370367789268494  0,09148971411731754  0,14239236231634977  -1,5279544354758685  -7,919375  133,59658554687502  11,558398917967619  -0,6256238011217783  -0,7478989810061774  3,09125  330,76659531249993  18,18698972651879  -0,4708180321281801  -1,281638831905183  3,585  11,098243750000002  3,3314026700475585  1,4131444037317151  1,26880242136789
5  -0,618115234375  0,00322266101837158  0,05676848613774706  -0,08180859122539601  -1,0911200075779344  0,169091796875  0,004386922121047973  0,06623384422670915  0,7660810822076559  -0,683067910306494  -0,86576416015625  0,019320046967267985  0,13899657178242916  0,3196568154050716  -1,407562076974643  -38,760625  440,3891449218749  20,98545079148587  -0,922830701958001  -0,4517724359116029  -65,06125  375,34890468749984  19,37392331685815  0,022657820320601818  -1,4953956465919305  12,699375  30,53950742187499  5,526256184966002  -1,7898414203946666  2,4382965100783505
6  -0,71759765625  0,00534106025695801  0,0730825578161986  0,176771552411813  -1,5114831376091642  0,17883056640625  0,006425296658277509  0,08015794819153937  0,5816104894063023  -0,41547681630737365  -0,26073486328125  0,04752827460169788  0,21800980391188346  -0,6609164365274217  -0,678992990762882  -23,6  287,433515625  16,95386432719691  -0,6894602407694929  -0,22639005285463298  -105,04875  47,66871718750001  6,9042535575904225  0,10677202577758173  -1,2295872837865973  -18,718125  96,40605429687497  9,818658477453779  0,2184522572098755  -1,3762525582230543
7  -0,9194970703125  0,04539846017360687  0,21306914411431532  -0,5107267377285596  -0,9750111453638524  0,0562060546875  0,033833964562416066  0,1839401113471884  -0,29880969412446845  -0,9108809141130361  0,2446484375  0,035013218736648546  0,18711819456335224  -0,5537411880694244  -1,3181494163619654  -106,518125  3401,9108042968746  58,32590165867026  0,32478360069974094  -1,4549815771121175  -57,799375  812,3313511718753  28,5014271778077  -0,1292592390789178  -1,3274157860870697  -28,569375  208,06608554687492  14,424496024016745  -0,7813151299532505  -0,8000965886446281
8  -1,04112060546875  0,001553308075666427  0,03941202958065503  -1,3673553963851162  2,065649863493287  0,02860107421875  0,0025960700213909127  0,050951643951799165  -0,7718133949273742  0,653326337310181  -0,02262451171875  0,01202632791399956  0,10966461559682576  0,34283108664773937  -0,5475008516965918  51,013125  3548,4099449218756  59,568531498786136  0,06625927513695977  -1,2796959349468031  -15,18625  151,71952968749997  12,317448180832749  0,3062504850780398  -1,1542879934554346  2,6725  247,36172812500013  15,72773753993244  -0,5473888745866875  -1,391016732787603
9  -0,995673828125  0,0006268609523773197  0,025037191383566162  -0,6808076774411802  0,38143474677560096  0,1499169921875  0,0019499049425125122  0,04415772800442197  -1,0700181805235451  0,46402132650728145  0,00614990234375  0,00468628370165825  0,06845643652468517  -0,050271060181125427  -0,8127146975041537  81,37125  1659,9695953124985  40,74272444636586  0,8105549119327692  -0,8749451662412318  6,194375  43,91389804687499  6,626756223588958  0,8392228955912832  -0,6448398662222963  14,089375  21,797051171875005  4,668731216495013  -0,28694347806433296  -1,446901274071485
10  -0,9785107421875  0,0002843332052230836  0,016862182694511514  0,17604020933006084  -0,8520228678781168  0,2065087890625  0,0006125343084335328  0,024749430466851813  0,5059843373539731  -0,8132529474488934  -0,028662109375  0,0018061769008636465  0,0424991400014594  0,2537274598297702  -1,3623049929891908  -1,239375  602,2929730468749  24,541657911536355  0,3494890227631611  -1,4957392453984428  1,140625  3,713310546875  1,9269952119491631  0,04707687187082164  -1,1087349818273142  0,244375  5,187898046875001  2,277695775751231  0,8951852296415129  -0,6024167990911842
11  -0,97841064453125  0,00043382675051689137  0,020828508120287716  1,1719431752845362  1,5020814840466947  0,19038330078125  0,0007050403296947482  0,0265525955359311  0,12795263150321104  -0,9039289913090407  0,00574462890625  0,0019926624953746793  0,04463924837376498  0,6294015865230431  -0,4339980095717677  -10,448125  213,71008242187497  14,618826301104852  1,6790738282426225  2,661273308948788  1,824375  5,301148046875002  2,3024222129911363  0,9132543711427661  -0,02429282912138664  -5,320625  9,098098046874998  3,0163053636651243  0,10869605119412047  -0,9360376672237809
12  -0,918623046875  0,0017227517127990724  0,04150604429235665  0,4891150457938844  -0,8424219432286444  0,158779296875  0,003922075653076173  0,06262647725264589  -0,27593353184079844  -1,0385652079725403  0,07595703125  0,01692448053359986  0,13009412182569918  -0,35420621888019166  -0,2931484127049573  -17,276875  2686,7174417968745  51,833555172271126  -0,25901580290716936  -1,3784082163962352  12,78  280,14855312500003  16,73763881570516  0,4887455964493895  -1,38283817985991  -12,20625  120,38582031250003  10,97204722522192  -0,0147392760561756  -0,8457418328196131
13  -0,9835791015625  0,003946405196189879  0,0628204202165974  0,6349460758558055  -0,3172538764137771  0,11704345703125  0,005551612490415575  0,07450914366985824  0,6179784290859588  -0,7532192887274514  -0,094697265625  0,0025403538703918436  0,05040192328068289  1,027046008608494  0,24271714073351403  -7,238125  1681,8913824218744  41,01086907664692  -0,4854068084575371  -0,8174860956644432  26,628125  42,36940429687498  6,509178465588033  0,09536968945848469  -1,0697815927693806  0,36625  153,51515781249992  12,39012339779148  -0,6389616126304449  -0,8846091364152788
14  -0,929287109375  0,0009201294422149651  0,030333635492880918  -1,6623150359774612  3,089810890803294  0,1372900390625  0,0009296658277511596  0,030490421901822867  0,6331968719181319  -1,1268322934618429  -0,2143701171875  0,0022132299184799194  0,04704497761164224  0,1934897776383945  -1,2550652294620297  29,06625  995,2953765625002  31,54830227702436  0,08408924886215283  -1,177320837498921  46,04125  13,790485937500009  3,7135543536482682  0,397812058714414  -0,6467983286650321  4,255625  15,831023046875002  3,9788218164269433  1,157112233048385  0,911611776523173
15  -0,89984130859375  0,0003083185851573944  0,017559002965925895  -0,7938483809958486  -0,48511688988358026  0,13486572265625  0,00033096324801445016  0,018192395334711977  0,41071114156237903  -1,079868656728421  -0,42493408203125  0,0063609057128429436  0,0797552864256843  0,5889846769120861  -0,6994914219957411  9,659375  88,145966796875  9,3886083525129  -0,17342214588907834  -0,900313464151361  47,144375  35,97067929687499  5,997556110356533  0,130686768280043  -0,9674278542373194  0,620625  11,217051171875005  3,3491866433322293  -0,02522172032019249  -0,8879315064063182
16  -0,87017578125  0,0009084309577941899  0,030140188416700218  0,6296868862776854  -0,682167133543083  0,14975341796875  0,00032102214694023116  0,0179170909173401  0,08041480476325433  -1,3204724218829116  -0,652333984375  0,0023903738498687733  0,048891449660127415  0,16759460688148878  -1,1688955524654745  7,923125  79,164754296875  8,89745774347229  1,002400119308548  -0,3099938426989488  29,681875  34,86711679687501  5,904838422588294  1,0838909780855772  0,6855628204948765  2,908125  2,6690980468749985  1,6337374473503992  0,44899689634972817  -0,649580194982458
17  -0,887431640625  0,0026288219451904298  0,051272038629163456  -0,36750173718656  -1,2802189628642102  0,167294921875  0,0004567445755004885  0,021371583364376362  0,41676049519448644  -1,1601088751115787  -0,813984375  0,005219629621505738  0,07224700423896993  0,04051470676221555  -1,5046117469952727  8,294375  47,298694921875  6,877404664688199  2,0229423523222847  3,206303812016518  3,984375  112,991357421875  10,629739292281585  -0,2996898900213733  -1,595054801958719  4,440625  5,752919921874995  2,3985245301799596  0,20539733464471321  -1,2550590841276739
18  -0,85729736328125  0,003716155880689621  0,0609602811729869  -0,33736328700303253  -1,4419951793733377  0,173623046875  0,0018069168567657475  0,04250784464973198  -0,5032155925854662  -0,9721368153369383  -0,76164306640625  0,02362206780314445  0,15369472275632776  1,0959546685749084  -0,33011822731481555  4,155  1877,3279281249995  43,32814244950964  0,9925570165625859  -0,16606775663908824  -17,734375  48,847763671875  6,989117517389087  -0,5494896378045953  -1,1285856541118746  -1,21625  35,057454687500005  5,92093359931523  -0,5260707177687833  -1,233885207191063
19  -0,72529052734375  0,002776728028059008  0,052694667928159564  0,08673360677491936  -1,234401564925443  0,121025390625  0,0018978656291961677  0,04356449964358787  0,7347999640032706  -0,5534538913846001  -0,4881201171875  0,00971171643733978  0,09854804126587083  -0,6870688752330073  -0,5261778601349518  -27,725625  3827,3055386718747  61,86522075182368  0,3395668387459751  -1,1640602045371518  -26,78375  308,84300156250015  17,57392959933834  -0,6325425232018416  -1,3457433142072854  -0,965  26,364243750000014  5,134612327138244  -0,23440170168928728  -0,9912043394859409
20  -0,7289697265625  0,005926786684989923  0,0769856264830645  -0,24909801502185977  -0,7569284198883119  0,1575537109375  0,00580224301815033  0,07617245577077274  0,1697242109032889  -0,9478905877651416  -0,2891943359375  0,007282574677467346  0,0853380025397088  -0,4386711196398027  -0,5896191831408957  5,884375  1589,689248046874  39,87090728898546  -0,7363608761127385  -0,5633705943337501  -65,145  53,937725  7,3442307289463615  0,7257022890833285  -0,46429348620208133  7,13375  11,577579687500013  3,402584266039566  0,2561013748430778  -0,9436725541436837
21  -0,99255126953125  0,006267579191923148  0,07916804400718226  1,2516999873541317  0,9667364587282625  0,1873681640625  0,0015451674699783328  0,03930861826595197  -0,061909144772670774  -0,7464049340673378  -0,00386474609375  0,013923873966932305  0,1179994659603691  -0,30477941947560605  -0,6738023443616501  17,484375  975,922451171875  31,239757540222282  -0,3995664333325744  -0,7836822403010828  -49,339375  533,700019921875  23,101948400987197  0,40558584040654505  -1,4409854682652978  -7,55875  19,745532812500002  4,443594582373599  0,051598829310795194  -0,680587848053483
22  -0,98427490234375  0,00030342590212821953  0,017419124608550784  -0,6597926905285819  1,4721221113147624  0,15906982421875  0,002149398773908616  0,04636160883649979  0,3103535048588511  -0,6558915740932121  -0,0389794921875  0,0026731064558029164  0,051702093340627094  0,6888640253475461  -0,8096385106939135  -9,13625  591,6267484375004  24,32337863943865  -0,0027601664708255544  -1,521520576295999  -6,120625  45,69181679687502  6,759572234755319  0,29857897286369267  -1,298339611295818  0,42  18,711178125000004  4,325641932129844  -0,16606769930599474  -0,6156941964533935
23  -0,99764892578125  0,003133468216657636  0,055977390227284055  -0,06105005804378355  -1,1094860998396283  0,1498486328125  0,0009880811929702756  0,03143375881071616  -0,12442981419410089  -1,4442655172648007  0,01782958984375  0,00965551192164421  0,09826246445944763  -0,08259397950674569  -1,0368871456823563  2,206875  587,7741167968748  24,24405322541746  -0,12471087725673015  -1,4863054844716188  40,078125  171,695263671875  13,103253934495623  -0,7469694904293421  0,12897255754910297  -2,103125  44,087529296875  6,639844071729019  0,27135898747194925  -0,9139159200138112
24  -0,81121337890625  0,002385947531461716  0,04884616189079461  0,4660374963382879  0,2428262303729145  0,14510009765625  0,0004750776946544648  0,02179627708243921  0,325686864171584  -0,9136841663662292  -0,31525146484375  0,029005951708555203  0,17031133758078235  -0,31045200150461605  -1,214102603018197  5,346875  206,39284179687505  14,366378868625004  -0,23034448829104062  -1,253892360083014  75,68125  108,37386718750005  10,41027699859615  -0,2383906341162809  -1,2646751238555685  -1,780625  20,215663671875  4,49618323379675  -0,4247718186855427  -0,3116256993252984
25  -0,6935302734375  0,00244224965572357  0,0494191223690139  -0,2736322602970767  -0,8102587119814886  0,11859130859375  0,0009743909537792205  0,031215235923811636  -0,2756031521323249  -0,5751356824896354  -0,59446533203125  0,0030314818084239956  0,055058893999280406  -0,12152956777944282  -1,2257520706351746  14,47  196,18534999999991  14,006618078608408  -0,35342977859930197  -0,9879030095165473  57,625625  34,179101171875  5,846289521728718  -0,03131444687099909  -0,9445994505117361  9,22375  13,586107812500002  3,6859337775521688  -0,40777869260042543  -0,45885874251723546
26  -0,6209228515625  0,0007074195146560667  0,026597359166956158  0,29525787535115366  -1,1051134636517317  0,14803955078125  0,0007798762977123261  0,027926265373521147  0,6544505686008495  -0,16325790960102404  -0,7021826171875  0,012307242178916926  0,11093801052352131  -0,07869826187333531  -0,7869368003376569  17,630625  134,55172617187492  11,599643363995073  0,4896963766512206  -0,8086466301553186  44,57625  14,901607812500004  3,8602600705781476  0,3954903328211253  -0,9501794690013661  2,800625  16,22669492187499  4,0282371978168054  0,17621523669644876  -1,396084861594566
27  -0,6687744140625  0,0007464486360549927  0,0273212121995894  -0,20320583666214911  -1,3710342047588828  0,10177734375  0,0004160693645477296  0,020397778421870592  -0,6112210314989835  -1,1592558773842672  -1,03481201171875  0,00625049483180046  0,07906007103336336  -0,34433892892504153  -1,5268046825872312  12,804375  63,946613671874964  7,996662658376616  -0,2956651471470666  -1,2627848553069343  25,401875  65,61830117187499  8,100512401809837  -0,3245116423884975  -0,5458047556036618  -1,394375  5,498257421875  2,3448363315751912  0,6551351618828759  -0,9254668576646781
28  -0,57196044921875  0,001978708952665329  0,044482681491399875  -0,227837424648348  -1,3890350310150816  0,093544921875  0,00027471985816955575  0,016574675205552468  1,1171592988468833  0,8519169933915567  -1,12438720703125  0,0031740814387798306  0,056338986845521376  1,3840637294185194  2,038908958876566  4,030625  128,01308554687495  11,314286789138542  0,5438503754075474  -0,6468083008664953  -16,806875  436,7400074218749  20,898325469325883  -0,27786739150861517  -1,3654380518047005  -1,20125  4,615592187500001  2,1483929313559007  -0,8667938581991134  -0,3885363441652392
29  -0,52780029296875  0,0010233421981334686  0,031989720194672985  0,9144749116949664  0,4436449447990145  0,14701171875  0,0008356293678283691  0,02890725458822351  0,1541902401709232  -0,28886266912105674  -0,86718505859375  0,0012337893187999726  0,03512533727667213  0,3517313774154144  -0,914171148718542  -32,874375  1317,7605855468746  36,3009722396918  0,07824633667807214  -1,218873471465346  -79,2875  862,4652343750001  29,3677584159057  -0,8643351914992912  -0,5577643175934721  8,61  23,943603124999992  4,893220118183934  0,09284011272229027  -0,5908064366400643
30  -0,49423095703125  0,0017129321753978724  0,041387584797833665  0,09656640713191846  1,2241559113219278  0,1453466796875  0,004036712908744811  0,06353513129556601  -0,6190308945846282  -0,6709960085198641  -0,239638671875  0,15735027112960823  0,3966740111598039  0,4023605754571068  -0,9434567486440009  -2,86375  1238,5376859375008  35,19286413376298  -0,6433774967244869  0,15126447989195935  -216,966875  1024,882613671875  32,013787868227574  0,5503337158081575  -0,6043309430590655  -0,7075  92,58780312500001  9,62225561523908  -1,0599492350564428  0,3304656117491871
31  -0,96780517578125  0,011193720883131022  0,1058003822447302  1,526975071867806  1,679378060663483  0,10921875  0,002762843990325929  0,05256276239245735  0,4685103237794341  -1,1920459782059152  0,594638671875  0,04729029836654666  0,21746332648643693  -0,23754916657415792  -1,0819493575083894  -17,916875  1379,7551605468743  37,14505566757  -0,8402806831662732  0,05181840757853928  -48,163125  1921,3352261718758  43,8330380668723  -1,146086087315651  0,39384748630635036  -3,9175  124,41358437499999  11,154083753271713  -1,1494846770613578  0,19091264624773308
32  -1,019482421875  0,0002578592300415038  0,01605799582891663  -0,4620962016343022  -1,1641986485784117  0,16012451171875  0,0012536569297313693  0,035407018085845204  0,9270793731842516  -0,5715736096893633  0,32572509765625  0,0014128745257854455  0,03758822323262228  -0,2864069407320513  -1,04986208701877  6,904375  855,0758167968748  29,241679445559807  -0,3381449722912923  -1,4897669211611395  2,96  76,354103125  8,738083492677328  0,023798950047885136  -1,231001677477153  -5,831875  142,57060117187498  11,940293177802419  0,1611168067951761  -1,6475155812622044
33  -0,9699853515625  0,00048795082569122304  0,022089608998151666  -0,3446337058678596  -0,27095612093109755  0,1374462890625  0,0003162061929702759  0,017782187519264213  0,4757460927072709  0,04830313121423924  0,27701171875  0,0008272964000701903  0,028762760647583714  -0,4428422529175889  -0,9997996571583632  0,68125  102,80316406250009  10,139189517042281  0,24909556551525558  -1,0832384685768766  36,099375  161,49641367187493  12,708123924162644  0,11065938677733135  -1,1229395995808  -0,16125  17,3216546875  4,161929202605446  -0,42526043490502397  -1,28132050887065
34  -0,91609619140625  0,0020450175464153285  0,04522187022244136  0,33826920664639165  -1,4038034826562742  0,12769287109375  0,002593825405836105  0,05092961226866061  0,6696238660027587  -0,503647861205442  0,005224609375  0,03693113088607789  0,19217474049957214  -0,2600920020552321  -1,6326467938421774  53,6625  570,6431250000003  23,888137746588793  0,9573598992020118  -0,45870003757975475  92,13  290,85513124999994  17,054475402368727  -0,2033796712851575  -1,1498429702326523  6,3225  73,08779062500003  8,54913975935591  0,6784911929540517  -0,6713403205791404
35  -0,79867431640625  0,0020218487441539756  0,044964972413579614  -0,40100378804156944  -0,846646442928376  0,16931396484375  0,0023777466952800753  0,048762144080014315  0,2178145366057687  -1,0057604946569185  -0,3194482421875  0,016052631640434266  0,12669898042381503  -0,09244716456000174  -1,2064912816554956  -33,935  1111,1835093750005  33,33441928960216  0,3432417725220609  -1,2893322257243793  93,5225  80,40808750000005  8,967055676196065  -0,9489852394967121  0,7869644055970921  6,279375  52,49323867187503  7,2452217821040525  0,004515016875343466  -0,6850634212816722
36  -0,68017578125  0,000713423490524292  0,026709988590867872  0,09673480527938574  -0,8160750232208107  0,21107666015625  0,0013668945491313936  0,03697153701337549  0,7696769585542405  -0,4084057840195956  -0,70463623046875  0,010641269320249556  0,1031565282483351  0,33784710679132285  -1,2576787232594364  11,363125  469,5467730468747  21,66902796728258  0,15974684748624737  -1,121563558777724  67,90875  245,4943296874998  15,668258668004553  -0,30325695054724805  -1,6031944427966558  -4,548125  13,222176171875  3,636231039397112  0,7986744319054202  0,0013278968869543384
37  -0,649599609375  0,00030572428703308106  0,017484973177934276  0,31496608004233134  -1,0187858433515127  0,192890625  9,664735794067384e-05  0,009830938812782523  0,3598033971434306  -0,7031053907994074  -0,84162841796875  0,0012207277953624716  0,03493891520013854  -0,020666411684799983  -1,0800478115607894  6,85625  123,66253906250009  11,120365959018619  -0,01640849745311985  -0,96660639946082  19,614375  151,58984804687506  12,31218291152609  0,6140756114691204  -1,0438231291987548  -8,2375  10,919687500000004  3,3044950446323873  -0,6880717045704797  -0,6625924077094125
38  -0,65719482421875  0,0001572163760662079  0,012538595458272347  0,005574311534281688  -1,2454273671394713  0,176748046875  0,000202891731262207  0,014244006854189835  0,15762770667445342  -0,5635040798908433  -0,90729248046875  0,000910570448637008  0,03017565987078009  0,7175834720589221  -0,13294197025555698  -2,336875  113,96796054687498  10,675577761736129  0,03535336905872522  -0,7466936512924649  1,475  3,7182031250000023  1,9282642777897439  0,427801786795397  -0,7050699213717153  -3,228125  1,6935449218749992  1,3013627172602569  -0,23243622127620014  -1,3013025972561763
39  -0,5927685546875  0,0013884234189987183  0,037261554167784226  0,825962691668741  -0,263189038444982  0,23295166015625  0,004537595576047898  0,06736167735476825  0,8310012875466405  -0,11525906972488897  -1,05009765625  0,0023680710792541495  0,04866283057174284  -0,24983716769789358  -1,374326935327725  -27,0  784,79703125  28,014229085413007  -1,6798916251140767  2,185271209357828  -35,455  723,5299281249999  26,898511634010532  -0,7711191573609899  -0,003555062627826011  -8,259375  41,444169921875016  6,437714650547585  -0,7228491317572032  -0,9315654859612001
40  -0,5917529296875  0,002378336644172667  0,04876819295578489  0,06344267176940159  -0,9234846499569311  0,24695068359375  0,010827211731672289  0,1040538885946714  -0,6818645198093597  0,3811429076517765  -0,633623046875  0,06724872217178342  0,25932358583781656  0,05723733136063349  -1,4534384634634847  -59,346875  1517,8147167968755  38,95914163321461  0,6211958036421565  -0,9860832193008071  -146,5225  605,6689468749998  24,610342274641365  -0,5352683581297984  -0,7608415729168359  -41,38  94,753490625  9,734140466677065  1,1162891495147456  -0,19042211394083486
41  -0,68192138671875  0,015933330506086352  0,12622729699271212  -0,13949836059013707  -1,0154357212481526  0,0297607421875  0,003050270676612851  0,05522925562247649  0,10710988747454396  -0,8059987949650638  0,346318359375  0,13273102221488953  0,36432268967892945  0,28069575734609176  -1,2726474268286223  59,144375  2241,3990386718756  47,343416001297115  -0,21019587837799517  -1,2794392682706024  -171,90375  695,9167515624999  26,380234107424066  0,6466548750215413  0,24727296357405004  -33,51625  281,73262656249995  16,784892807596357  0,2543831405808669  -0,9873333353582585
42  -0,960888671875  0,0014571714401245112  0,038172915006906546  -0,47852088610164006  -0,4181857689689399  0,13489013671875  0,0019443136394023896  0,04409437196970141  -0,4155118727367418  -0,5723741325712188  0,55254150390625  0,07241643106341367  0,26910301199245923  0,4279483521213594  -1,3132151092843098  -31,119375  420,32281992187507  20,501776018722744  1,0199749149415427  1,0369891243698381  -4,333125  1016,9789105468756  31,89010678167879  -1,6046901094009545  1,755114150588696  2,043125  181,28177304687495  13,464091987463355  -0,563652967069016  -0,949608619006657
43  -0,973037109375  0,0006663576602935793  0,025813904398474464  -0,28364766595753876  -1,3113577945218193  0,103427734375  0,0014014834403991707  0,03743639192549371  -0,1471776077371453  -1,0113666552796576  0,407705078125  0,0032441007137298584  0,056957007591075734  -0,6341389065671945  -1,2481545892750632  21,545625  966,4751449218746  31,088183364775027  -0,6168196789747613  -0,8689246248729092  14,22125  133,8242515625  11,568243235794275  1,163476577994807  0,37457854522025036  -2,91  243,49291562500005  15,60425953465912  0,4031538239963431  -1,5743576401185002
44  -0,935556640625  0,0017007326126098634  0,04123993953208301  0,2845377355569878  -1,151492875503894  0,10664794921875  0,002878550356626511  0,053652123505286455  -0,008779337916672078  -0,36486641951182675  0,23646484375  0,02253164567947386  0,15010544853360205  -0,3992500557313963  -1,0675964985164872  -10,903125  279,3962011718752  16,715148852818366  -0,331653542912701  -1,149849356838049  97,139375  473,9354574218752  21,770058737216928  -0,6007965233300874  -1,1066029124428307  9,64  42,28157187500001  6,502428152236671  0,45769836003336467  -0,6803067271793584
45  -0,90509033203125  0,00463956281542778  0,06811433634285649  -0,08231826453632798  -0,8145423742958795  0,1687353515625  0,01234279515743256  0,11109813300606163  0,5412959263423889  -0,6246884001404114  -0,15602783203125  0,009014223927259443  0,09494326688743886  0,0860680857446135  -1,0618658504591447  11,594375  1325,8765230468753  36,412587425873426  0,20931564140887177  -1,130764025090814  85,995  112,02630312499994  10,584247877152157  1,4899877700961497  2,1931792985823906  20,019375  35,42052304687501  5,9515143490438644  -0,41165919793746325  -0,1770165777598689
46  -0,79232421875  0,014282639646530149  0,11950999810279535  0,06909312609473446  -1,2332458604943854  0,20970703125  0,008209826850891113  0,09060809484196825  -0,10350774662465052  -1,1848638950821948  -0,4413916015625  0,027140929484367367  0,16474504388407976  -0,343974617540982  -1,0191949105657885  7,350625  2505,782804296874  50,05779464076373  -0,23061658763481854  -1,301045542052096  78,935625  121,27269179687497  11,012388105986592  -0,9886965825432041  0,16097452129734924  14,18625  95,63054531249996  9,779087141062808  -0,22828395331057474  -0,4568420506950823
47  -0,646337890625  0,0011575412750244147  0,03402265825923093  -0,33346026253658284  -0,03844411938225134  0,2426123046875  0,0011217994928359987  0,03349327533753602  -0,6322939375117772  -0,7004528474491916  -0,69256103515625  0,006101072853803631  0,07810936469978251  0,6958422100825372  -0,595601723713219  12,663125  354,55444492187496  18,829616165017146  -0,24135958570051558  -0,8635674055515183  46,800625  111,63185117187491  10,56559753028076  -0,3070877748611602  -1,3877108681358894  8,4975  27,640774999999984  5,257449476694948  0,2685444877676525  -0,8833062787739934
48  -0,62962890625  0,0010901187896728516  0,03301694700714849  0,4363670095033394  -0,8534642392436584  0,23596923828125  0,000288545435667038  0,016986625199463194  0,5458386008475351  -1,0814557848750714  -0,8211181640625  0,0011126273870468136  0,0333560697182209  -0,3407424953433083  -0,8179137705835395  14,289375  146,386691796875  12,099036812774601  -0,5091135307680175  -1,0414337986698055  24,513125  27,217601171874975  5,217049086588603  -0,5368866138653459  -0,6276553441308592  1,534375  1,267529296875  1,1258460360435614  -1,0757297894133497  0,37023758117409633
49  -0,59271728515625  0,0004238651454448702  0,02058798546348987  0,28439016630553576  -1,3119123166024005  0,21769287109375  0,0006092847049236299  0,024683693097339178  -0,1350695168464017  -1,2825431968072643  -0,9611328125  0,006320116519927976  0,0794991604982592  0,3904665448138459  -0,8618661957089566  1,42375  98,73973281249997  9,936786845479778  0,5267950833882332  -0,20396146613659827  7,55875  89,54006406250002  9,462561178798266  -0,4298131970359523  -0,9290002532575743  1,116875  3,523254296875  1,877033376601226  -0,555396522157205  -0,3386894005560448
50  -0,59043701171875  0,0007205930411815643  0,026843864125374428  0,612651610991388  -1,0648346719288333  0,197529296875  0,0010784491062164308  0,03283974887566028  -0,15057446885608974  -1,6956343854778522  -0,9955126953125  0,0010741052389144894  0,03277354480239343  0,4733024436302952  -0,6496871499064709  12,311875  159,75371054687506  12,639371445877957  -0,8785566456668227  -0,3142802250672472  -33,235625  241,11662929687498  15,52793061862639  -0,46373373141281654  -0,586714230322392  -2,14625  1,0519703124999995  1,0256560400543642  -0,4262574398677789  -1,087407883436012
51  -0,613212890625  0,0012469137668609616  0,03531166615809797  -0,34188517043921557  -0,9160345675195312  0,18569580078125  0,0004773079097270963  0,021847377639595475  0,3139089290828902  -1,1634866010878016  -0,74162109375  0,006458216762542724  0,08036303106866194  -0,05239569174142932  -0,4510606865268465  -28,479375  620,4468011718753  24,908769563586944  0,6404133067058881  -0,8628544771922444  -84,641875  303,209754296875  17,4129191779229  -1,1199780660351033  0,8622840910245984  -2,415625  41,486904296875  6,441032859477973  -2,0019267386929505  3,0450609849525465
52  -0,7448681640625  0,002034842944145203  0,04510923346882768  0,6224693889934863  -0,14855430499228683  0,1488427734375  0,004274637961387632  0,06538071551602684  0,2655796726340785  -0,60720248990047  -0,243232421875  0,03512322554588317  0,1874119140980188  0,08826699928802023  -1,198530249015621  -39,98  936,9968656250011  30,610404532201155  -0,32099400527134664  -1,124186541603971  -124,22875  328,5382984375  18,125625463346086  -0,16873149616319652  -1,5927152697735694  -13,17  140,327740625  11,846001039380335  -0,29545161099839945  -1,228127486683747
53  -0,89950927734375  0,008549184674024584  0,0924618011614774  -0,32368779513499935  -1,277133347247194  0,1982275390625  0,0036258170843124398  0,06021475802751714  0,05897134342651084  -1,6350819141267845  0,32671142578125  0,030505394095182395  0,1746579345325668  -0,2113424743918536  -0,8681060954045661  13,408125  530,0287855468746  23,022354040081883  0,2024215749080474  -1,070652354266047  -78,044375  1095,2421324218747  33,09444262141115  0,24934197772349528  -1,3184881788905878  -10,723125  28,664863671875  5,353957757759674  -0,550009546386334  -0,14345183674472617
54  -1,03308349609375  0,0005799931228160862  0,024083046377401805  -0,30694957110095206  -1,049863964693634  0,181865234375  0,0015104766845703125  0,038864851531561426  -0,4737657052162371  -0,4499527244241248  0,24854736328125  0,0020700661838054667  0,04549797999697862  0,8367564972757718  0,7735125811585428  -0,673125  333,1678011718749  18,25288473562124  0,059588634876197935  -1,3837989612915569  -5,515625  48,653154296875  6,975181309247453  -0,5339521282430199  1,2015695137329265  -13,405  19,333631250000003  4,397002530133455  0,1298400982072919  -1,4101253910257336
55  -1,03267333984375  9,52137172222137e-05  0,009757751647906075  -0,4167606362821193  0,005469199858223028  0,1481103515625  0,00044327642917633086  0,02105413092902034  0,027633799239898445  -0,9801976762124638  0,25610595703125  0,0011563211619853978  0,034004722642383044  0,17543616110533905  -0,8174584384427512  -4,089375  282,1527542968749  16,797403200997316  -0,12710841721364613  -1,4667208085677306  20,70125  194,40121718750004  13,942783695786865  0,029994021181112746  -1,4787407146287945  3,55375  28,781407812500028  5,364830641548718  -0,6653262320684191  -0,7711225187692152
56  -0,9576806640625  0,0030605449914932266  0,0553221925766977  0,7198081739099143  -0,14146232814272564  0,1864697265625  0,0016101832151412961  0,040127088296327905  -0,3734964384491921  -0,7766434293338298  0,1106201171875  0,014279206395149234  0,1194956333727272  -0,2601736203872664  -1,2265147254563062  5,056875  168,58953867187492  12,984203428469339  -0,12071966188981324  -0,8898384715896599  81,536875  368,1452417968748  19,187111345819485  -0,6863766690320141  -0,8988370287882264  11,0425  24,447490625  4,944440375310435  0,1488643430083806  -0,6710088692810405
57  -0,80810791015625  0,0009671419799327848  0,03109890641056024  0,3349095036965139  -0,6860078739449489  0,17034912109375  0,0005551521480083465  0,023561666919136824  -0,018469951966412445  -1,2194063289784816  -0,271171875  0,003770923709869385  0,061407847298772696  -0,14337027944884942  -1,172439999893404  17,663125  295,0067105468751  17,175759387778903  -0,4933830437252843  -1,3226764119976602  84,96875  52,6398828125  7,255334782937311  0,30402034121675314  -0,7160503802986913  4,58875  10,646264062500004  3,262861330565552  1,6197097966396852  3,046216129906492
58  -0,6832568359375  0,0007909295320510859  0,028123469417038253  0,4804868585030192  -1,0228757141569695  0,17768798828125  0,0011112066447734829  0,033334766307467685  0,30855501567227755  -0,7481897197057878  -0,5396142578125  0,009418109202384952  0,09704694329233123  -0,043414783850442194  -0,9680963535433338  4,340625  243,22838867187508  15,59578111772139  -0,35935677527171783  -1,4012950575743157  71,673125  27,185066796874985  5,21393007211211  0,5610857420894194  -0,25552776149669  4,63375  16,78328281249998  4,096740510759741  -0,16159961065402076  -1,305902468550861
59  -0,5549365234375  0,0017850875616073597  0,04225029658602836  -0,7324687517676828  -0,33790000921737295  0,21902587890625  0,0012600095927715299  0,035496613821201735  0,6129438050781602  -0,39046240282940436  -0,949208984375  0,014666974449157712  0,12110728487237138  0,4440759270893723  -0,1046662227713906  10,134375  228,82299804687503  15,126896510747835  -0,5853573753354321  -0,7365998232037376  55,1875  336,211875  18,336081233458803  -0,6495821881751116  -0,23217443678258753  5,45875  34,86986093750002  5,905070781751903  -0,03764324755654767  -1,4137847193140567
60  -0,5959912109375  0,0007950846910476686  0,02819724616070989  -0,29780035327921  -0,9833527254691905  0,21333740234375  0,00022795564532279968  0,015098200068975099  -0,13080154002644248  -0,9143606052067139  -0,96147705078125  0,00818959986567497  0,09049640802636848  0,6294851793427257  -1,161744075221563  7,029375  127,37917617187497  11,286238353493824  -0,027834076322354757  -1,542380380092165  7,65  45,38109375000002  6,7365490980174725  0,49432724469444567  -1,245831917042921  -3,28  5,361990625000003  2,3155972501711095  0,4733230401032497  -0,44285234156667785
61  -0,5193798828125  0,0008771261930465694  0,029616316331484736  0,35033091529378885  -1,3632155133505952  0,2005908203125  0,0004722163438796996  0,021730539429100686  0,35178496472020243  -0,7090433351965291  -1,04935546875  0,0011420926094055184  0,03379486069516367  -0,7341473250712801  -0,7729387878099234  -3,784375  139,988154296875  11,831658983290339  0,35796783893051665  -0,8154054091307525  -29,64375  667,5271484375002  25,836546759145275  -0,7928696079864851  -0,20009614892186578  -0,473125  23,720254296874995  4,870344371486989  -0,6808229749181425  -0,9429973256872541
62  -0,53108642578125  0,0027818489730358125  0,05274323627761016  -0,0569810344797851  -0,6122584750104454  0,2316845703125  0,0005770039319992068  0,024020906144423586  0,0017250555701242016  -0,8603557559246244  -0,7304931640625  0,04355481088161468  0,20869789381211945  0,4269384185568662  -0,724669865627229  -49,071875  214,44495117187486  14,643939059278923  0,7145860177438634  -0,6496010171965025  -146,814375  676,4091761718753  26,007867582173578  0,36188468715666006  -1,4635567752725276  -8,810625  83,87214492187499  9,158173667379048  -0,9332507159936139  -0,9208941627122131
63  -0,77556884765625  0,010367342060804365  0,10182014565303059  0,048108642552678264  -1,3600601938396257  0,1102197265625  0,001838583254814149  0,04287870397778073  -0,015370369465479988  -0,742532995816223  0,09734619140625  0,03827023488879205  0,1956277968203702  -0,701317381856323  -0,8231287291984186  -2,768125  304,38666367187506  17,446680591788084  0,5652916685550892  -0,9105039937470312  -126,665  1055,6930874999996  32,491430985722985  0,19113890840296532  -1,2234966327105135  -30,160625  65,02798867187498  8,063993345227598  -0,16094401054555904  -1,0129591977578705
64  -0,97890625  0,0020993363857269285  0,04581851575211629  0,5208395196001543  -1,228558717045755  0,1438037109375  0,002853280282020567  0,053416105080963804  -0,8349528105023885  0,4204674501290233  0,40183837890625  0,006850016421079633  0,08276482598954482  0,5988793947935229  -0,9780852318974045  3,910625  2016,4681449218758  44,90510154672714  0,11434090276427679  -1,6383919663615198  -54,12375  607,9346859375003  24,656331558800474  0,2156853757951218  -1,4652182763160126  1,39625  148,3785328125001  12,181072728315028  0,014220875758397209  -1,5361351029108625
65  -1,01063232421875  0,0007349602878093718  0,02711015101044942  0,17025873621726684  -1,3304790875354215  0,16421630859375  0,0019147737681865702  0,043758128024249054  -0,2724996369824869  -1,2580409561110073  0,30986083984375  0,00023521506190299956  0,015336722658475622  0,9385533588174654  1,9665175092744587  -9,940625  296,12612304687514  17,20831552031968  -0,31902951680076486  -0,2983991620480171  0,34  22,816899999999997  4,776703884479338  0,13927630280695413  -0,6896482460408513  -4,34125  70,02464218750004  8,36807278813348  0,41276728863734  -1,0354139845911765
66  -1,0056005859375  0,00010022141933441166  0,010011064845180639  0,34335754556834  -1,15967840499024  0,14284912109375  0,00012510883212089524  0,011185205948970956  -0,03024748207199383  -0,8749416800299068  0,30503173828125  0,00018168460726737968  0,013479043262315752  0,4878116408167126  -0,16452231446994636  2,94875  154,4014359374999  12,425837434052479  -0,715856884388971  -0,3849925433076917  27,384375  159,47534179687491  12,628354674971515  0,3543777680973931  -1,3582312580545446  0,1525  39,21150937500001  6,2619094032890645  -0,029353220405874278  -1,4172494482170508
67  -0,92404296875  0,0021234229564666748  0,04608061367285243  -0,33851729552802634  -0,5956147021681599  0,140283203125  0,00042926669120788556  0,020718752163387776  0,19030858882967522  -1,1690932924439033  0,06822265625  0,01956255831718445  0,13986621578202668  -0,6420646650732252  -0,6695414363327337  20,831875  29,901226171874995  5,468201365337143  -0,1725162706738009  -0,05710851337784195  63,54375  37,9801171875  6,162801082908648  0,7937523890896513  -0,49801194339174604  7,07125  26,027970312499992  5,101761491142054  -1,5720514903361575  1,9091329410189317
68  -0,90288818359375  0,0004581175506114961  0,021403680772509575  0,5473756186841137  -0,546810489511957  0,148291015625  0,0002670729160308836  0,016342365680368422  1,129859346217005  0,2742516438197846  -0,10738037109375  0,003098442620038987  0,055663656186411135  -0,541657103257125  -0,07681218048191685  13,328125  364,505654296875  19,09203117263522  -0,32448507281040245  -1,3727460580090474  65,134375  170,405966796875  13,053963643157392  0,8370782081310468  -0,8184899263221705  -5,525625  105,76063242187502  10,283998853650024  0,7648013148022401  -1,0523012371434945
69  -0,82660888671875  0,0025088921725749964  0,050088842795327146  -0,19970690350527287  -1,3857880742125275  0,16087646484375  0,0005078189074993135  0,022534837640846527  0,13768398801384396  -1,0333679935842646  -0,4476708984375  0,01824191238880158  0,13506262395200822  0,18118347268088214  -1,403845333020196  13,58125  122,77933593749995  11,080583736315518  0,34998422860035544  -1,210684896364514  82,08625  86,32310781250003  9,291022969108408  -0,4264182901392849  0,05789649082853465  9,345  34,57855312499999  5,8803531462829675  -0,17459820938437282  -1,467778278884654
70  -0,7161767578125  0,0017487542867660514  0,041818109555144305  0,5670775950317349  -0,7538651772934233  0,19868408203125  0,0006794854342937468  0,026066941406573705  0,3387231974733738  -1,3680231034627433  -0,74613525390625  0,00600220448374748  0,07747389549872577  -0,30767122925396584  -0,7415803592875956  -7,043125  57,378960546874985  7,574890134310529  -0,1656163758426998  -1,5325723900739585  55,0575  19,347084375000005  4,398532070475332  -0,5596470594788353  -0,4846415207515191  3,011875  2,3460699218749976  1,5316885851487558  -0,21185033889676308  -0,8590802014248244
71  -0,59533935546875  0,002215540999174119  0,04706953366216962  -0,4014053074502302  -1,4113632867477475  0,20872314453125  0,00024549753069877606  0,01566836081722578  0,8082490212917781  -0,2203643766601222  -0,9482568359375  0,005682945036888121  0,07538531048478955  0,3883989538208768  -1,3736069655269432  13,54875  65,78551406250006  8,110826965390155  0,30694447441041656  -1,1703906761581462  22,24375  165,83238281250004  12,87759227544109  -0,013783117677911792  -1,5709651647134735  2,146875  7,1040136718749975  2,6653355645912575  -0,3387325017453119  -1,0620489266480002
72  -0,5743896484375  0,0007464355230331422  0,027320972219764476  -0,06300570113407544  -1,1885798666451228  0,19546875  0,0009211594104766848  0,030350608074249268  0,023583265564935306  -0,9114016346632821  -0,96286865234375  0,004943133705854414  0,07030742283610183  0,17454531581248123  -1,398513139814376  -9,299375  118,42119492187493  10,882150289436133  -1,137849553371858  -0,10885683832375603  -14,166875  167,87828554687502  12,956785309129538  -0,7931368910044297  -0,5065004640129285  8,5975  17,551196875  4,189414860693555  0,014794302251247393  -1,617962968177676
73  -0,5943310546875  0,000621003842353821  0,024919948682808737  -0,2614719269303278  0,6349822260121489  0,2391748046875  0,0012925174474716185  0,03595159867755005  -0,8437097872697449  -0,5205955255360326  -0,78860107421875  0,0007743512332439421  0,027827167179645545  1,461033257531861  1,4342395280053841  -15,59125  288,1276890625  16,97432440665902  -0,3682560651458148  -1,1838742038575694  -59,7425  257,00580312500006  16,03140053535561  -0,8718003705120801  -0,4162715175843439  -6,609375  56,997607421875  7,549675981250785  -0,6862162684833097  -0,9397835377079531
74  -0,667333984375  0,00014629006385803224  0,012095042945687801  -0,5434320624365961  -0,14582136971572934  0,2341943359375  0,0018310721158981344  0,042791028451044905  0,8794319553284323  -0,06484685435196846  -0,43588623046875  0,024052121514081967  0,15508746407779697  0,32491125759245837  -1,0938719982737792  -50,739375  42,579848046874986  6,525323597100376  0,5500531178864485  0,391578005292724  -113,99875  300,27101406250006  17,328329811684103  -0,23984190097822258  -1,2570949250106356  -5,585625  44,607785546875014  6,678906014226807  0,3110226440702771  -0,6675664513196189
75  -0,81842529296875  0,0057696531474590316  0,07595823291427356  -0,4278486594448699  -0,7713016103519119  0,194462890625  0,00850711283683777  0,09223401128020926  0,19926380312366737  -0,8184933218282344  0,1280615234375  0,08734277179241183  0,29553810548288323  0,3963018270831397  -1,1756906615674403  5,8  1210,6407031249996  34,7942625029616  -0,9358180744504584  -0,03770128032662612  -151,104375  620,6719574218754  24,913288771695225  1,5710171055302349  2,2913122177731875  -32,685625  238,95589492187503  15,458198307754854  -0,15573207670817474  -0,9497391666083206
76  -0,98920654296875  0,00013769780993461609  0,011734471012134125  1,4895772159320622  1,784709422706527  0,12083984375  0,001199821138381958  0,03463843441008785  -0,7476847900100906  -0,7605042425572957  0,4716943359375  0,0030891273260116574  0,055579918369962164  1,040676794806299  -0,2874519222336973  -17,871875  203,81534179687512  14,27639106346121  -1,2275928760517767  2,413475362338782  -28,13  538,8614593750004  23,21338965715693  -0,7191645785301035  -1,0149445703046085  -10,979375  7,6633636718750004  2,7682781059487143  0,43699439906084325  -1,3472491104528104
77  -0,98547119140625  0,00010155140757560726  0,01007727183197949  -0,10161530116494902  0,13105771763283602  0,11003173828125  0,0002968248069286346  0,017228604323294285  0,4900456707548298  -1,2360910231743678  0,37553466796875  0,002403977745771407  0,04903037574577016  0,40358567896947084  -1,286987276267681  4,02625  61,593139062500015  7,84812965377739  0,8754882752033062  -0,6257405259519633  3,320625  14,451066796874994  3,8014558785911214  -0,01438881442228229  -1,3776433355879767  -2,579375  30,325769921874986  5,506883866750322  -1,0334675734579255  -0,46712500133789403
78  -0,96945556640625  9,567725062370289e-05  0,009781474869553308  -0,26522721905950924  -0,9380908923106404  0,128759765625  0,00025030732154846186  0,01582110367668646  0,5989455145483175  -0,6854419463261698  0,3217431640625  0,0007096803426742558  0,026639826250827083  0,6759183562228963  -0,36043832625605443  -4,615625  52,32909179687503  7,233884972604626  -0,9206884688955673  -0,41064314149742254  6,038125  4,225382421874999  2,0555735019393  -0,14182208481835423  -0,9597816827816743  -0,451875  11,121551171874989  3,334898974762952  0,4811381245426634  -1,2646251061037672
79  -0,9969677734375  0,0005472304582595822  0,02339295745004428  0,21000832918979223  -1,4789452535876952  0,12599609375  0,0001051493644714355  0,010254236415815441  0,5424661192092376  -0,6580898650621889  0,37639892578125  0,0004680023849010467  0,021633362773758654  -0,4917455878776624  -0,5342805376541211  -5,098125  46,67923867187502  6,832220625234157  -1,1362633428989402  -0,36027813665971964  24,690625  220,39346679687523  14,84565481199382  0,1797908363811716  -0,9458936991434106  5,11  39,319462499999986  6,2705233035210055  0,4061348748020053  -1,1165076676004204
80  -0,93036376953125  0,0009712742030620576  0,031165272388703064  0,5627002873824878  -1,17834300130146  0,121005859375  0,0022336191177368164  0,047261179817444425  0,6904860744162058  -0,17638511430247794  0,17118408203125  0,012024140423536295  0,10965464159595022  -0,6152702519905519  -1,3107672122070038  5,84625  364,08589218750006  19,08103488250834  1,402176551302117  0,6705553212897941  76,205625  262,2809605468749  16,195090631017628  0,638063676347864  -0,7133898495016049  11,225  60,763125000000045  7,7950705577307025  -0,8676590947846198  -0,9978923122154479
81  -0,92382080078125  0,0003078263461589814  0,017544980654277776  0,3843253694972496  -0,594665664846127  0,16578369140625  0,001578239649534227  0,0397270644464731  -0,5006484948838121  -1,1864738288970584  -0,17002685546875  0,01416996032595634  0,11903764247479173  0,6641474123145367  -0,9514662952851527  57,15375  74,13854843749999  8,610374465579298  -0,8225746464093789  -0,36208330563914437  83,0125  107,6278125  10,374382511744976  0,4764015129465042  -1,1615465430489544  9,273125  5,9037230468749975  2,429757816506616  -1,7280978377420513  2,724061035609374
82  -0,80278564453125  0,004288760775327682  0,06548863088603764  -0,09638437617248194  -1,3454158566728127  0,1876611328125  0,00034831550121307357  0,01866321251052652  1,0000662233396171  1,0950147104988295  -0,444228515625  0,005395675086975099  0,0734552590831664  0,20173211166406538  -1,518843049431854  -2,586875  285,5724136718748  16,89888794186987  0,725657649949026  -0,2944314478701142  84,874375  35,70175742187499  5,975094762585359  -0,04357575225696979  -1,0995971933460194  12,740625  16,341826171875  4,042502464053052  0,7253595667991483  0,5271168079059043
83  -0,5816357421875  0,0014162811994552613  0,03763351165457804  -0,40544272168721185  0,21644394033912873  0,251123046875  0,0004607045650482179  0,021464029562228475  0,09155881005442873  -1,31416695198158  -0,7568359375  0,003036344051361084  0,05510303123568688  0,729734410759263  0,07032207121911238  4,67125  72,80668906250001  8,532683579185392  -0,1641026145754214  -0,3555379113382604  57,545  281,08578750000015  16,765613245569043  0,09702173021824839  -0,43225607041096303  9,765  48,37704062499997  6,955360567576635  0,5535319043184173  -0,829133194423509
84  -0,5835693359375  0,00015749394893646234  0,012549659315553643  -0,7118484676842833  -0,1656869011825428  0,2382861328125  0,0003275084257125854  0,018097193862933153  -0,19656031789841671  -0,9952011536501408  -0,8513037109375  0,0016727457284927366  0,04089921427720509  -0,6835834692900866  -1,0084565666638505  3,91  43,18314999999998  6,571388742115321  0,008638570352126475  -1,0732334848583507  17,255625  48,476569921875026  6,9625117538051615  -0,6323301137296475  -1,128599205686171  -0,62125  3,0768609375000007  1,75409832606385  0,6809299061025754  -0,7659730949450854
85  -0,5591064453125  0,0005200630426406861  0,02280489076142848  -0,6634053834003126  -0,7059817647223152  0,2551220703125  0,0004230963945388795  0,020569307099143605  -0,22738429717121397  -1,05507465861818  -0,93439453125  0,001563900804519653  0,039546185713917506  0,7262337942420467  -0,6382857581941792  3,78  24,983631250000002  4,998362856976272  -0,37411102851963773  -0,1731577873724932  5,530625  103,02605429687505  10,150175087005891  -0,13436158753249985  -1,5335071077969675  -5,2475  5,365696875  2,3163973914248825  -0,26105195584208335  -1,1325764531859244
86  -0,565498046875  0,000235730504989624  0,01535351767477486  -0,18537433063126996  -0,7488748860533527  0,228828125  0,00015046844482421873  0,012266557986012977  -1,130318459369843  0,6318853646325708  -0,92947265625  0,0012621954441070556  0,035527390054816234  0,7566982139330255  -0,913849528964406  1,006875  12,516944921875002  3,5379294681882794  0,5599826486393682  -0,7123783351362545  -27,34  152,32635312500005  12,342056276204547  -0,13854441335909107  -1,531413465415624  -2,4725  1,3552593750000006  1,1641560784534009  -1,0039208776471693  0,28220802131341927
87  -0,611162109375  0,00024673566818237297  0,015707821878999422  0,6019180036344339  -0,6761112838725523  0,2169677734375  0,00019005596637725823  0,013786078716489987  -0,794890889507152  -0,3411508854811731  -0,77224609375  0,0020429423809051506  0,04519892012985654  -0,5609110168405727  -0,8314677524661191  -13,395  193,27264687500008  13,902253302073015  0,314501020489161  -1,431086438424797  -54,743125  22,499054296875006  4,743316803342889  -0,7149270550234659  -0,14074574781448002  -4,75  4,616015625  2,1484914765946828  -1,4921156663831503  1,1166932987946012
88  -0,67323486328125  0,0010896125495433804  0,03300927974893394  0,07274929363596432  -1,1735154806444774  0,23826904296875  0,003149552792310715  0,05612087661744705  -0,060771879469139416  -0,9714038799028715  -0,54177978515625  0,02178500134348869  0,1475974300029939  0,46076101803331865  -1,225318612077423  -38,206875  378,47091367187494  19,454328918569125  -0,12664839731826102  -1,2480947743854265  -101,05125  916,3220609375002  30,270812029701155  -0,6768231503947932  -0,7242955091728147  -14,183125  52,030098046874976  7,2131891730963895  -1,1310652183244791  -0,04565239410662114
89  -0,84308349609375  0,004085253304243085  0,06391598629641168  0,5930309984812678  -0,5721023171180928  0,1636572265625  0,0021895411252975455  0,0467925327942135  0,03318873365557341  -0,7551074549029559  -0,01246337890625  0,01419292256236076  0,11913405290831316  -0,0024981242581521225  -0,9074196517470541  -31,14125  507,6259078124999  22,530554982345638  0,5585713811031123  -1,1218780985714443  -124,941875  502,21126992187527  22,410070725499178  -0,22746898256454778  -0,84297089844407  -25,871875  27,562216796874996  5,249973028204526  -0,20522779330167548  -1,465165337992063
90  -0,9536572265625  0,0014090649843215954  0,037537514359925264  -0,2790815522745123  -1,122827767529505  0,11966552734375  0,0012954501807689665  0,03599236281169891  0,6023681736516447  -0,9513966418743971  0,3972607421875  0,0020679645299911493  0,04547487800963461  -0,36498290139465406  -0,6367198849408728  -8,959375  93,91877929687503  9,691170171701405  -0,16262397151442295  -1,3590873435324928  -51,1825  261,8166937500002  16,180750716514986  -1,034313405191703  0,6993592182045947  -7,24375  20,996445312499986  4,582187830338253  -0,42875826793158317  -0,28198005922712355
91  -1,0235986328125  0,0008283725023269651  0,0287814610874251  -0,014804948652821686  -1,0847936035746575  0,1325830078125  0,0006381688356399535  0,025262003793047643  0,17665096498598007  -1,3032641752640768  0,4119970703125  0,007042903208732612  0,08392200670105912  0,04759349752509687  -1,4378589608057915  3,681875  170,18750742187495  13,04559341010883  -0,4009905778308645  -1,3258088413810187  -8,0325  125,58394375000002  11,206424217831485  -0,8507647817865422  -0,35266058180048043  -5,860625  11,562723046875005  3,4004004244904755  -0,6394546673022271  -0,6738739361430528
92  -0,95880126953125  0,0005429665744304657  0,02330164317018149  0,08842835546407932  -1,3694710742841643  0,13387451171875  0,0005170182883739472  0,022738036159130965  0,5753434924290618  -0,5899853799080184  0,30820556640625  0,00031629812121391305  0,01778477217211154  0,22480088490351025  -1,385292592017724  1,93375  41,2674078125  6,423971342752083  -0,4319674254106254  -0,7288625451516513  11,745625  17,938066796874995  4,235335499919103  -0,07954338586783229  -1,1795324642251819  0,765625  1,023388671875  1,0116267453339696  -1,7948331227838092  3,197514273372457
93  -0,9868798828125  0,0011064632177352903  0,033263541869970645  -0,5514699473544263  -1,1340187410348537  0,1231005859375  0,0017811758279800407  0,04220397881693195  -0,5075564485999385  -0,927821700044352  0,31438720703125  0,004991396492719651  0,07064981594257448  -0,48209649563322765  -0,8580529025451522  -1,841875  105,83097304687499  10,287418191503395  -0,4256743299254814  -1,285407024039945  53,134375  556,0320605468752  23,580332070326644  -0,07359322475811146  -1,6229474507181918  6,774375  59,838194921875036  7,735515168485874  0,4234679639523404  -0,9900674459086045
94  -0,8758837890625  0,0016937479734420791  0,04115516946195313  -0,9634136753040003  -0,07834540635694909  0,1560986328125  0,0010004660844802858  0,03163014518588692  0,909154373567307  0,19525054145021103  -0,03268798828125  0,013376377695798884  0,11565629120717508  -0,5623435433272863  -0,6514154810869912  29,986875  292,5756480468752  17,104842824383834  -0,20337368370641784  -0,3805653146771917  95,43375  41,592173437500016  6,449199441597385  0,3289309608334093  -0,9733492179071339  21,004375  16,728535546875  4,090053244992662  -0,3312400976010551  -1,425871544472346
95  -0,77501708984375  0,0024855774104595167  0,049855565491322196  0,5360362078914354  -1,418755958741223  0,2496533203125  0,006554175829887388  0,08095786453388817  0,5190127711593959  -1,3768531105883506  -0,40781005859375  0,025314068669080737  0,1591039555419058  -0,11175351608851121  -1,7012968041376009  1,59875  121,54735781250005  11,024851827235596  0,444997643692172  -1,1625038027293781  82,718125  428,6920699218749  20,704880340679946  -0,6186031572762564  -1,1101711257574274  24,251875  13,224176171875003  3,636506039026335  1,07294285883746  1,1882140556526037
96  -0,6772119140625  0,00017861130237579358  0,013364553953491811  -0,11615533142325477  -0,9246486479688136  0,38572509765625  0,0006076112449169159  0,024649771701111472  -0,3029698283021437  -1,2534057738026656  -0,7300927734375  0,0015111403703689595  0,0388733889745795  0,19311899543823996  -0,4360126190228031  22,749375  179,18706992187492  13,386077465855147  0,6076792293980383  -1,2090664822285444  30,15  257,19921874999994  16,037431800322643  -0,17449928993594702  -1,2657804078093133  14,101875  173,03450429687507  13,154258029127872  0,38562778183538093  -1,2679561732026423
97  -0,73314208984375  0,0002060072124004364  0,014352951348082958  -0,05569680710812014  -1,032399255590699  0,30647216796875  0,00018539869189262384  0,0136161188263258  0,5683210299876308  -0,9370962804546257  -0,7444384765625  0,0005283553361892704  0,022985981297070406  0,9757739471613728  -0,0604398369839787  7,9325  21,8046625  4,669546284169373  2,0389726751808  4,439152531690484  9,731875  10,816273046875004  3,2888102783339455  0,5910324758148697  -0,8220024823974552  2,321875  1,6045605468750008  1,2667124957443978  -0,08833898331881175  -1,4547771391991609
98  -0,7421044921875  5,398657321929936e-05  0,007347555594842367  -0,7767881607070538  -0,7087314770367046  0,32857666015625  0,00011791154742240904  0,0108587083680523  -0,003783825309289973  -1,2726599479877239  -0,83439208984375  0,0017017961204051973  0,04125283166529538  0,47994332178458055  -1,256486744467741  8,525625  41,058288671875026  6,407674201445874  -0,39996136731346377  -0,8776085283439405  1,631875  45,883819921874995  6,773759659293722  0,06997946391186398  -1,5599130885699557  -3,235625  14,381629296875005  3,792311867037705  0,5973002365648622  -1,1485027558404584
99  -0,700126953125  0,0015923882484436035  0,03990473967392349  1,0534594669460815  -0,35333123876128836  0,26933837890625  0,0009156373679637901  0,030259500457935358  -0,02905985099941685  -1,4087008846531586  -0,871240234375  0,0020841014385223396  0,0456519598541217  -0,13992982945154045  -0,8932102413155927  17,1625  269,3534375000001  16,4119906623176  0,3526924919865057  -1,0917481416872747  -25,244375  194,58188242187498  13,94926099913092  -1,2129078519328174  1,569108303926659  -2,233125  2,6409261718750003  1,625092665627102  -1,067851679519375  0,4531811847788263
100  -0,600576171875  0,0020561455726623534  0,04534474140032506  1,4958399857145683  1,2217241831634462  0,251435546875  0,001708360052108764  0,041332312445697544  -0,7058055662737756  -0,5230945735665293  -0,706611328125  0,019683522081375124  0,1402979760416205  0,3349233499505732  -1,4708561493296628  -50,619375  593,7489136718751  24,366963571029427  0,619912136792328  -0,4870800043299979  -112,16  812,5814312499997  28,505813990307306  -0,07471776845527406  -1,5061207818279643  -7,260625  237,54430117187496  15,412472260214289  -0,36086729241219545  -1,3503791437287385
101  -0,627939453125  0,0451972674369812  0,21259648970992254  -1,0643052217631328  -0,0068707125036691075  0,0958056640625  0,006547126984596255  0,08091431878596182  0,7649526600754838  -0,6632276327312838  0,39896240234375  0,273988355845213  0,5234389705067947  0,04189429063958421  -1,314828591499573  -18,470625  1200,258160546875  34,644742177520605  -0,2984091325387439  -0,8585373253808015  -170,07875  855,9641890624999  29,25686567393199  1,2727790835697088  1,3067360331404307  -23,023125  145,353723046875  12,056273182326079  2,036554530763537  4,068889216425519
102  -0,95747314453125  0,006063507431745531  0,07786852658003444  0,4275389904783301  -0,3838905343135033  0,207724609375  0,004406242036819458  0,0663795302545857  -0,13206613233283063  -1,0761980608139212  0,59153076171875  0,052995816582441325  0,23020820268279174  0,061426065191413796  -0,7242256191714316  -33,480625  901,4970074218752  30,024939757173122  0,09837415567235477  -0,7464432941923316  -48,57  536,5058031249999  23,16259491345907  1,3330924454375792  0,6887205099665654  7,05375  881,1180484375003  29,683632669157937  0,09157426291394234  -1,7625959964763482
103  -0,91056396484375  0,000217317408323288  0,014741689466383694  0,043552160313380474  -1,230490305872597  0,19288330078125  0,003172778338193894  0,056327420837402935  0,10663776830028648  -0,4060521118556868  0,519384765625  0,0022133696079254155  0,0470464622253939  0,39311157038263744  -0,824975193482357  0,56125  209,05734218749984  14,458815379812409  0,2135030423269173  -0,36621406771797016  16,279375  93,53675429687499  9,671440135619669  0,6316892131314857  0,31426806922382555  -2,66875  29,6219140625  5,442601773279026  -0,49689468335215853  -0,1329964682308611
104  -0,93733154296875  0,003877570265531538  0,06227013943722575  -0,31644638958226684  -1,2047977898052329  0,15765625  0,0014116097927093507  0,037571395937725696  0,01203764211759703  0,2528060097031437  0,4276318359375  0,0063696875333786014  0,07981032222324755  0,25510307864834597  -0,7809644743978712  -1,7025  68,43102499999995  8,272304696999498  0,35703541623906265  -1,2772078356421845  86,38375  475,5260171874998  21,806559040515765  0,21001283003532414  -0,5494567555554419  8,184375  25,892529296875008  5,0884702315013115  0,3903778822174751  -0,8089981395267789
105  -0,930927734375  0,0036738451480865467  0,060612252458447265  -0,16651971373169674  -1,40381485504793  0,24021240234375  0,0017327226340770733  0,04162598508236259  -0,5811756952687094  -0,4909339803894839  -0,03907470703125  0,017162217348814006  0,13100464628712222  0,7981868128486486  0,05917276547051609  26,07125  712,1242203124999  26,685655703251886  -0,022602190723373692  -1,3241046697496055  91,361875  296,0028355468751  17,204732940295095  0,6850912541663099  -0,7479104283682352  19,30125  60,86042031249999  7,80130888457187  1,1174859451957537  0,3557549978466361
106  -0,790439453125  0,0015198225021362305  0,03898490095070437  -0,6598299130729035  0,00289671816756476  0,25485107421875  0,0005829306304454805  0,024143956395866036  -1,8998697441092458  4,417084790452924  -0,30344482421875  0,0037378205001354207  0,06113771749203122  -0,7672127981523285  0,01831803242616603  21,16125  312,93556093749993  17,689984763631085  -0,6611276113592202  -0,5754329005574288  78,556875  42,444773046875  6,514965314326316  0,43689972680845524  -1,1342717170939292  18,25375  5,279673437499997  2,297753998473291  -0,09434757323171597  -1,2650273572165596
107  -0,70298828125  0,0006787613868713371  0,02605304947355179  -1,1000767951728174  0,6016693317916055  0,3420947265625  0,001361667609214783  0,03690078060440975  -1,5295098395115743  2,7386583983503607  -0,57045166015625  0,007912130659818651  0,08895015829001458  0,6945773868027215  -0,9463119192578748  6,484375  48,976982421875  6,9983556941523775  0,733286368057408  0,5354872411622558  60,9725  350,5645562500002  18,723369254757547  0,01672401109175266  -1,4939963789752733  18,2675  43,726099999999995  6,612571360673546  -0,6005113543897541  -1,1454170979991392
108  -0,6673876953125  0,000257664656639099  0,016051936227106656  -0,7628153501065978  -0,3502509665016902  0,36139892578125  0,00020584618449211116  0,014347340676658903  0,2609927852272504  -0,6959641473478393  -0,74908935546875  0,0051276300609111765  0,07160747210250601  -0,2293523475289917  -1,1099226611367905  11,03875  87,59224843749999  9,359073054394862  0,9775206038857902  -0,6555253059227488  22,2825  28,620584375  5,349820966630566  -0,9526206748924564  0,0821221598393631  4,713125  5,084069921875002  2,2547882210697754  0,588469457579434  -1,1747390078706033
109  -0,6889208984375  0,00031108424663543695  0,017637580521019228  0,5147234891226403  -0,7197884111754096  0,35880615234375  0,00041238195300102214  0,020307189687424062  0,08217971154869125  -0,8457266297938792  -0,839013671875  0,00021532535552978515  0,014673968635982058  0,00965122566808962  0,0310089374687732  4,124375  25,240273046875  5,023969849319858  -0,15617331020510242  -1,2277240913959866  4,234375  11,786357421875  3,43312647915497  -0,20464870087250142  -0,2269863923391049  0,71625  1,9401109375000007  1,3928786513907092  -0,10736861902561554  -1,3799917105415873
110  -0,67060791015625  8,398019671440122e-05  0,00916407096842889  0,2974544881469986  -0,22697954195692294  0,387392578125  4,769935607910156e-05  0,006906472042881341  -0,3911450606742641  0,1342176582725001  -0,86078125  0,0001665104866027832  0,012903894241769931  -0,6453355052010085  -0,5171739649225366  4,715625  21,902998046875  4,68006389346075  -0,1708691809213201  -1,245866269229938  -10,65  60,10789062500004  7,752927874358179  0,17992539597828097  -1,4006679372736692  -4,933125  2,9117386718749994  1,7063817485765016  0,15617484157882225  -1,2864150587533332
111  -0,651572265625  0,00038638200759887693  0,0196566021376757  0,20474289213338642  -0,9579707093233409  0,3447412109375  0,0006630001306533814  0,02574878891624578  -1,054651100120767  0,10124234576354674  -0,78701416015625  0,003439097279310226  0,0586438170595181  0,3466992031329109  -0,8968625835104516  -7,129375  35,210254296875014  5,933822907441291  0,30836923857105214  -1,1309736155707615  -37,7875  125,56374999999998  11,205523191712201  -0,7607352708336511  -0,5436634204773916  -2,656875  2,5306636718750006  1,5908059818453666  0,3678883913664824  -0,6545007809148333
112  -0,699541015625  0,0015591727256774898  0,03948636126154814  0,9640221924121561  -0,18402231506333555  0,26813232421875  0,0013221095263957982  0,03636082406101102  0,21803774084855168  -0,8146769829694587  -0,5773876953125  0,009188441014289856  0,09585635614965685  -0,3845692070913258  -0,10860651586562131  1,935  139,11600937499998  11,794744989824917  0,13560745746876426  -0,6544228536789052  -88,9275  351,106071875  18,737824630276588  -1,0533262488897355  0,01681241937437772  -10,0325  37,346443750000006  6,111173680235247  -0,9517357514481497  -0,033028322461643445
113  -0,754677734375  0,007166430616378785  0,08465477314587043  -0,33010403947798755  -1,4592750134775034  0,2104052734375  0,008620280480384823  0,09284546558871264  -0,1866748655924499  -1,2743835567199822  -0,06294921875  0,07208900895118714  0,2684939644595147  0,401894446356852  -1,4100158710581094  -2,788125  7916,525929296875  88,97486122100374  0,21041569013713568  -1,355017146280194  -163,131875  600,8625699218748  24,51249823909988  0,21830030214153426  -1,4499497814906788  -35,544375  271,46838242187505  16,476297594480233  0,004972198961306911  -1,5634170933759808
114  -0,881396484375  0,002771285772323606  0,05264300307090778  1,0353347327739215  -0,5147933641978852  0,19700927734375  0,004762165993452073  0,06900844871066203  0,5654714408727454  -0,5668092888665317  0,5310693359375  0,007246424698829645  0,08512593434923134  0,15937967874302766  -1,5943886386638462  -28,35  2684,083828124999  51,808144418855605  0,4166370705566133  -0,2648507829027178  -53,263125  2068,586273046874  45,481713611592006  -0,7187185532759128  -1,0250313745743083  2,608125  90,61217617187499  9,5190428180503  -0,31048543725745975  -1,0942352141803937
115  -0,9606201171875  5,7695508003234906e-05  0,007595755920462091  1,2268926128117228  1,6561246538288827  0,1897021484375  0,00031206128597259525  0,017665256464953892  -0,15224784893808335  -1,4644080744076624  0,414443359375  0,0015235201358795184  0,039032296062101166  0,0019308984295318215  -1,357298849269568  -0,34625  59,3232359375  7,702157875394401  0,20481991384161236  -1,1521456882833745  3,120625  48,107676171875  6,935969735507429  0,02255377797195694  -1,3091705098441366  -9,664375  22,757863671875  4,770520272661568  0,4094020541626624  -0,90842872837763
116  -0,983330078125  0,00012873778343200674  0,011346267378834624  0,5279271554586193  -1,2017700598863155  0,15718994140625  0,00011582180857658389  0,010762054105819385  0,5435883931884069  -1,1807705302266247  0,3490478515625  8,595407009124754e-05  0,009271141790051942  -0,24374645695227926  0,20477156434044863  -4,8475  17,886353125  4,229226066906332  0,020387436234210868  -0,48397971526711636  9,566875  22,060488671875  4,696859447745376  0,30756779939863416  -0,8524330426701181  5,195  1,7283812500000002  1,314679143365407  -1,6592618065965825  2,92441808994111
117  -0,97587646484375  0,000265524023771286  0,01629490790926067  -0,3468486287751329  -0,9056709198610018  0,19879638671875  0,00042114598155021664  0,02052184157307079  0,41125897443453463  -1,2350446558288324  0,30832275390625  0,0016301797568798065  0,040375484602414455  -0,5720067713542629  -0,8466595824807581  6,618125  67,04975742187497  8,188391626068881  -0,42279367135111595  -0,9382106022809489  38,36875  115,16207031250008  10,731359201541064  -0,030261221965329974  -1,3652141627345802  11,994375  13,868132421875002  3,723994149011918  0,28732767931761344  -1,4013377699652445
118  -0,9605859375  0,0014430026054382328  0,037986874120388384  -0,1076137113076199  -1,1076690619940117  0,230517578125  0,0027834689617156987  0,052758591354543374  -0,769751396445389  0,3481178625082024  0,10964599609375  0,009931670302152633  0,09965776588983236  -0,23519225656075096  -1,677411163424396  35,6675  321,6524906249999  17,93467286083022  -0,34519444182548037  -0,5182235515900246  58,745  8,663959375000001  2,943460442234616  0,20488700153355188  -0,4090607406658906  0,2625  13,787265625000018  3,713120739351202  -0,2107150971750176  -1,2592520502452185
119  -0,8777880859375  0,0007140745878219609  0,026722174084867437  -1,3136031917223367  0,5597655740059917  0,23013671875  0,000687087202072144  0,02621234827466139  -0,6515073293627023  -0,2971450358013348  -0,1379052734375  0,0031810832262039192  0,05640109242030618  1,2929049086275883  0,6379408245831009  -1,77875  24,5099546875  4,95075294147264  1,5537090839013181  2,514780199065653  55,14125  43,065829687499985  6,562456071281543  0,379745362671763  -1,4520983341885412  3,685625  5,441598046875002  2,332723311255538  -0,28551522093502896  -0,7554507798284158
120  -0,8058349609375  0,00024763166904449456  0,015736316883073198  -0,6890150629860009  0,06674213172877375  0,2260888671875  0,0014066372156143181  0,03750516251950281  0,6369812006462333  -0,4845720534982694  -0,26656005859375  0,010582429236173632  0,1028709348464066  -0,45652767276598827  -1,5188372440761022  2,65125  571,9389984374998  23,91524615046853  -0,2223943270393532  -1,3982555885704382  64,32  37,131662500000004  6,093575510322327  0,4164351034584868  -0,38587700117559365  -2,310625  9,039176171875004  3,0065222719738838  0,8252182187644838  -0,3178939378823644
121  -0,8094091796875  0,00034624960422515865  0,018607783431273017  -0,22555057689618022  -0,768472669831977  0,2767431640625  0,00033330967426300074  0,018256770641682518  0,4616883091089528  -0,9109860789026114  -0,6111083984375  0,0032343393564224234  0,056871252460469195  0,8538839041200867  0,30523023646735226  5,790625  101,75471679687502  10,087354301147304  0,11642125211150235  -1,4326427158301236  50,33  104,3301625000001  10,214213748497732  -0,31865500654150386  -1,5276891691390115  2,731875  28,616819921875003  5,349469125238037  0,11282055475721611  -1,6666702045681432
122  -0,8014990234375  0,0013380227327346806  0,036578993052497774  -0,19732843768094252  -1,4141811222120961  0,29383056640625  0,00023451501727104202  0,015313883154544508  -0,47672047947097423  -1,181025502176422  -0,75396240234375  0,0024891207873821244  0,04989108925832472  0,8932716955228305  0,058639068546750384  0,69125  144,8959234375001  12,037272259008686  -0,8301834453850858  -0,7588403844191993  29,1225  77,32632187500002  8,793538643515477  0,4938570861909377  -1,0760941422268142  6,120625  8,638223046874996  2,9390854099319736  0,40397940654601305  -1,271603183203369
123  -0,73410400390625  0,00016879188418388372  0,01299199307973506  0,23010484381388846  -0,7462631239906194  0,32596923828125  0,00047862178683280945  0,021877426421606574  0,5105664070321736  -1,0181648850088232  -0,8476513671875  0,0005935501813888548  0,02436288532561065  -0,3775201264403683  -0,0219673764278685  0,395625  22,25672304687501  4,717703153747066  0,42854179462015424  -0,6096953653057398  8,30375  44,52265781250001  6,67253009079015  0,3608974283817384  -1,6544641183734312  -3,5375  20,388984374999996  4,515416301405663  1,0826711308471788  -0,0571977352850066
124  -0,6522412109375  0,002247128701210023  0,047403889093723346  0,3079151218156896  -1,0955177962624834  0,2781103515625  0,0003372597932815552  0,018364634308407974  0,21035063345931226  -0,44228203156865353  -0,876142578125  0,0008779548168182376  0,029630302340985952  0,031060665801983304  -1,3199275307627267  16,5625  53,99625  7,348214068738064  -1,1749431135085544  1,5821860005176367  -28,168125  390,2016167968749  19,753521630253044  -0,48722388868135325  -0,4349622859715878  1,745  20,901068749999986  4,571768667594631  -0,08745702306591356  -1,48275506959985
125  -0,60833740234375  0,0018679659068584443  0,04321997115753832  -0,3029344813391181  -0,44913806351043917  0,28420166015625  0,0021477104365825654  0,046343396903793806  0,2903958008605341  -1,3025630672959294  -0,70212158203125  0,011736065024137496  0,10833312062401551  0,734464105651408  0,15625302366795868  -11,31875  4167,689414062498  64,55764411797024  0,7441594573460806  -0,8120183878092697  -136,835  3037,7609781249976  55,11588680339814  -0,16672351583238357  -1,4499206692069226  -4,40625  107,1251171875  10,350126433406501  -0,29696093362267484  -1,3228448520421112
126  -0,648056640625  0,021382123613357534  0,1462262753863256  -0,2054661203355017  -1,7610170467065056  0,18584716796875  0,0043358085811138125  0,06584685703292005  0,6042270166252376  -0,6301012955675871  0,40179443359375  0,18479168102145194  0,4298740292474668  -0,48934810462274814  -1,1962628206918626  -21,54875  11474,920514062494  107,1210554189161  0,012714736422208725  -1,6663693033937297  -169,945625  6477,381848046876  80,48218341997735  0,46970173074002936  -1,4367265091044508  -0,36625  56,94898593749998  7,546455190186978  0,11030343437382692  -1,2359374196352622
127  -0,96959228515625  0,004455455988645555  0,0667492021573708  0,7757964265203616  -0,31364039049828296  0,14234619140625  0,0015961770713329307  0,0399521848130103  -0,5974833749343127  -1,303811256421618  0,5451171875  0,0010309219360351567  0,032107973091354686  0,20216074691176097  -1,26758678006005  -21,036875  555,5748511718747  23,570635357831886  -0,11855950729135455  -0,9525496902425021  -16,17375  487,6044203125003  22,08176669364343  -0,22722579697260115  -1,3452872860189797  -11,9775  108,03824375  10,394144685831538  -0,5848517147024863  -1,1761995116291588
128  -0,96293701171875  0,001661675804853438  0,0407636578934403  -0,22592454723733926  -1,5505361949172236  0,1294189453125  0,00012552201747894286  0,011203660896284877  0,43339918278781614  -0,7092104878223218  0,3753173828125  0,00668493926525116  0,08176147788079152  0,04842915726191491  -1,6398857241627551  9,9475  165,35240000000005  12,85894241374461  -0,22058714907510654  -1,468562897704804  20,42875  15,488517187500003  3,9355453481696796  -0,32718773309488824  -1,4462296269861914  6,84875  37,095639062499984  6,090618939196573  -0,25447283836468815  -1,5604822540532743
129  -0,98728759765625  0,0009372261226177217  0,03061414905918049  0,3154832282295345  -1,5286286496448926  0,1660986328125  0,000537320637702942  0,02318017768920122  0,3425971581985166  -0,756887896030658  0,3065283203125  0,0006372015714645388  0,025242851888495857  0,5962514841934247  -0,747298744457213  3,15875  34,12136093749998  5,8413492394737005  0,81784902035282  -0,32563421938255876  37,16375  222,4777171875001  14,91568694990278  0,43708241242231116  -0,9650004379753754  4,78875  24,548889062499992  4,954683548169347  0,43806093482128544  -1,409759374961301
130  -0,9401806640625  0,0029449331521987925  0,05426723829529924  0,6389989765892142  -1,3220080774130012  0,209580078125  0,001443760776519776  0,03799685219225109  0,5501564862320728  -0,741266680413573  0,10849853515625  0,015438319557905202  0,12425103443394427  -0,18738476230756151  -1,629335870850093  15,24  879,686696875  29,659512755185307  -1,0482936002375416  -0,1187956230140852  71,55125  43,01667031250002  6,55870950054201  0,4426645525812388  -1,2720730605996882  11,01375  4,7330140625000015  2,1755491404470737  -0,01176733862089887  -1,6114339524687225
131  -0,87599853515625  0,0004631258189678191  0,021520358244411713  -0,23302772733366775  -0,6851292716076847  0,25423828125  0,0009338957309722898  0,030559707638854954  -0,4000646204765676  -0,7918488522322016  -0,14835205078125  0,00538469359278679  0,07338047146746055  -0,08723283850564824  -1,293319148901234  -35,016875  1290,9206917968747  35,9293847956916  0,28009587959122373  -0,9902855854320838  73,64125  18,3896578125  4,288316431013458  -1,0015481495937009  0,3405126662450284  11,83125  11,950820312499992  3,4569958508074596  -0,760247279253314  -0,5021931700291433
132  -0,837529296875  0,002109684324264527  0,04593130004979749  0,18104347071114751  -1,2174991192008566  0,30498291015625  0,000543976181745529  0,02332329697417432  0,5374640164532499  -0,07617557132384212  -0,34628173828125  0,006896607464551925  0,08304581545479534  -0,11396065524941859  -1,4734692419222155  5,88875  422,8445765624999  20,56318498099212  0,2515355941923784  -0,9455832855114075  53,809375  198,60307617187522  14,092660365306305  0,15759188447788966  -0,9699556037652477  9,23875  18,099560937499994  4,254357876048981  0,4048662505901002  -1,1521605340864496
133  -0,7320068359375  0,0005146831274032595  0,02268662882411707  -0,3076726175960948  -0,3573802221018276  0,32510498046875  0,00017769772410392758  0,013330330982534814  -0,9111097215349268  0,5109589528018281  -0,651142578125  0,004320158576965331  0,0657279132253971  0,9158166644566184  0,3625306570125373  21,4175  343,01413125000016  18,52064068141273  0,19390837802048574  -1,7325848967501083  44,491875  53,758176171875036  7,331996738397736  0,09543513272582697  -0,6078584222537837  7,625625  6,653788671875  2,579493879014835  0,3587740663704392  -1,4617338763701961
134  -0,69238525390625  0,0002334624469280242  0,015279477966475954  -0,8254643030282144  0,050378292600744334  0,3367431640625  0,0002957981824874878  0,017198784331675532  0,1700860443814137  -1,1546541942124129  -0,7467236328125  0,0006534840822219852  0,025563334724209696  0,7266217491496995  -0,2273996399070608  6,58  28,20789687500001  5,311110700691524  -0,016407688012313616  -1,7034724004904247  20,524375  73,94249179687505  8,598982020964751  0,7360374050042406  -1,0685855446178245  4,0  16,635234375  4,078631434071973  0,13224983304751192  -1,5564566159377313
135  -0,6833251953125  8,677542209625246e-05  0,00931533263476149  -0,3996414408341024  -0,7939323847522695  0,3136767578125  0,00011599109172821047  0,010769916050193264  -0,2165930839989683  -0,7554135833415536  -0,80185791015625  0,0003517795741558073  0,018755787750873255  0,34276138189481853  -0,4294679321897714  6,484375  84,021669921875  9,16633350483578  0,4059029874894722  -1,2628532531000458  2,978125  25,237373046875  5,02368122464742  -0,17082922876674947  -1,636099600183972  -0,06125  2,370623437500001  1,5396829016066915  -0,240420626786674  -0,22751464461407211
136  -0,71607177734375  3,175312876701356e-05  0,005634991461130492  0,38761076758230684  -0,7214414895228125  0,2860400390625  0,00014544460773468023  0,012060041779972415  -0,034403804483538324  -0,9137412352594323  -0,79935791015625  0,000555957621335983  0,0235787536001372  0,6995603544769184  -0,5492578556387708  2,82875  248,30973593749994  15,757846805242774  -0,5980639916460778  -1,430580182847737  -10,569375  8,285773046874997  2,8785018754336424  0,27377229256347135  -0,6886369125687346  -3,37625  1,4535921874999997  1,2056501098992194  0,2513879312202472  -1,1111136689969372
137  -0,667978515625  0,0008469330310821538  0,029102113859342825  0,003581321692309001  -1,266492009528111  0,28448486328125  0,00010939642786979676  0,010459274729626178  -0,6393051230968044  -0,7372699512653789  -0,78323486328125  0,0013461132705211648  0,036689416328434074  -0,1541623698086777  -1,1240085219470064  2,769375  388,1466949218748  19,70143890485857  0,9666510781688044  -0,4729355511990434  -29,050625  250,723257421875  15,834243190688811  -0,7437351114789444  -0,9815813318069173  -0,913125  2,268741796875  1,506234310084258  -0,5022491162651572  -1,0217711962723932
138  -0,55284912109375  0,0034202604949474334  0,058482993211252735  -0,6337126630228657  -1,0986386065486986  0,250908203125  0,0006866849422454836  0,026204674053410464  -0,3281386325895926  0,24462563754658317  -0,63179931640625  0,039280534237623205  0,19819317404396955  0,7448201416633626  -0,995959679549864  -13,899375  4326,918819921875  65,77931908983153  0,05108958552295501  -1,7470711299523713  -142,42375  1905,5249671875001  43,65231915016086  0,2943155722435511  -1,0142334357595968  17,390625  99,767060546875  9,988346236833953  0,19203941584361794  -1,171295663798791
139  -0,784453125  0,032243482208251975  0,17956470201086844  0,15856919457996438  -1,7421420460740065  0,21259765625  0,003931442499160769  0,06270121608996726  -0,7751282221008428  -0,6187632070609168  0,4708740234375  0,12232013404369348  0,34974295424453294  -0,7483330085683335  -0,6934019021146001  5,3125  462,347109375  21,502258238961787  -0,8181807110685301  0,588455316558429  -145,424375  5828,677444921877  76,34577555386988  0,05340297317868493  -1,6475553452725265  -23,265  40,110712500000005  6,333301863956905  0,9746795758388321  0,31468176919440527
140  -1,01650146484375  0,00027003180384635905  0,016432644456883957  -0,17267221368705704  -1,3952753044944775  0,23632080078125  0,0012055020987987517  0,034720341282866905  0,04034830634467453  -0,836275839191257  0,3996240234375  0,0011146605253219608  0,03338653209487264  0,6643086143986212  0,05473078273667786  -9,56125  502,46804531249995  22,415799011244278  0,10443216103671515  -1,5323540594253595  -5,685  123,20577500000012  11,099809683053135  -1,6342909795341245  2,154994381859627  -9,33  40,02469374999998  6,32650723148247  -0,2818440399199093  -0,7387945224158705
141  -0,97836181640625  0,0004454763591289522  0,021106310883926453  0,6696073479371351  -0,74299247444644  0,2055615234375  0,00035072801113128683  0,018727733742535075  0,5006207343520517  -0,12090000323243677  0,28473876953125  0,0017024842441082002  0,04126117114319709  1,443529035101897  0,9037238578670195  -7,32625  68,51520156249997  8,27739098765426  1,0552792019285224  0,5799987798438302  18,444375  5,011944921874997  2,238737349908425  -1,0214310330293728  0,4484850594523593  -0,914375  7,7036449218749965  2,7755440767307222  0,12894459238094436  -1,2768902561905182
142  -1,006201171875  0,0003464782238006591  0,018613925534412646  -0,36125152692595686  -0,6570845441315658  0,19859375  0,0002390877246856687  0,01546246179253707  0,35246173812679543  -0,8061954072323911  0,2396484375  0,001200618743896484  0,03464994579932967  0,07403646451371906  -1,5460691469621264  -19,465625  98,22073242187491  9,91063733681517  -0,1435801942289435  -1,1289677180985347  33,058125  41,255566796875  6,4230496492612446  -0,5969849181900129  -1,0779582150413622  1,939375  32,57347304687498  5,7073175000936285  -0,4202809673530481  -1,1324195458747126
143  -0,98137451171875  0,0016215327918529514  0,040268260352949836  0,5890365576665566  -0,7214693198526896  0,2023583984375  0,00015363934040069584  0,01239513373871762  0,573392782053892  -0,1871971030407633  0,1169775390625  0,003235946917533874  0,05688538404136755  -0,33488150426092844  -1,1773796273126609  20,77875  120,50315781249996  10,977393033525763  -0,018864492072579307  -1,0743296960388253  53,055625  112,53999179687493  10,608486781670369  0,5258066240373301  -1,0868158010610924  3,219375  5,220585546875001  2,284860071618173  -1,0960190932854197  0,2414380785595558
144  -0,82631103515625  0,0012247887313365938  0,034996981746096244  -0,837187413475129  -0,5288227167694757  0,20013916015625  0,0002634761989116668  0,01623194994175582  2,220451321750322  5,849854923669971  -0,15087158203125  0,005081520622968674  0,07128478535401979  0,07659242243034896  -0,039455043120877775  3,005  368,88435000000044  19,20636222713714  0,07370477594143851  -1,5098869898264815  79,96375  8,98087343749999  2,9968105441452235  -0,2862632964289258  -0,9054470649313076  4,7525  43,136478125  6,567836639640179  1,0540488622503343  -0,1262099340760079
145  -0,73511474609375  0,0038100748717784876  0,06172580393788717  0,9900568223761229  -0,04688884768224266  0,19059326171875  0,0010088337123394006  0,03176214275421922  0,2759446651147256  -0,4950000948810058  -0,5050390625  0,018766124868392943  0,13698950641707175  -0,33697791135301813  -0,8146008959145679  39,978125  461,5257324218749  21,48314996507437  -1,1133668550597307  1,242518021184548  97,2675  18,374381249999985  4,28653487679734  -0,7442985683370299  0,42210694121367665  1,423125  15,529051171875004  3,94069171236155  0,4284309391235582  -0,7581714362275851
146  -0,6101953125  0,0010491317749023441  0,032390303717352575  0,4968111081132126  -0,8358096011473073  0,19883056640625  0,0015577353179454803  0,03946815574542951  0,13833838698230633  -1,1485202382581208  -0,825849609375  0,0012998674869537355  0,036053675082489654  0,3091132381329788  -1,080139514377413  -13,728125  340,88237304687505  18,46300010959419  -0,31460478432561506  -1,1722675286852902  43,4375  311,927734375  17,661475996501537  1,6121297022698169  1,364494768336244  1,425625  36,78653867187501  6,065190736644232  0,03615353415899794  -1,6006470370278432
147  -0,64362060546875  0,0005923448264598847  0,0243381352297148  0,6307882003288815  -1,2382612963439168  0,2377783203125  0,0002833221197128296  0,016832175133143952  0,4415882979815757  -0,5062070773479488  -0,924130859375  0,0009112538337707522  0,030186981196713796  -0,8461202709282308  0,757385726160869  4,1125  72,56226562499995  8,518348761643887  -0,6396141343462841  -0,9035391644056885  10,488125  61,57802304687497  7,847166561688044  0,3486175708671291  -0,6845184563484965  -5,93  4,932053124999997  2,220822623488872  0,2616437150482167  -1,3339135810001195
