ventana,acc_x__mean,acc_x__var,acc_x__std,acc_x__skew,acc_x__kurtosis,acc_y__mean,acc_y__var,acc_y__std,acc_y__skew,acc_y__kurtosis,acc_z__mean,acc_z__var,acc_z__std,acc_z__skew,acc_z__kurtosis,gyro_x__mean,gyro_x__var,gyro_x__std,gyro_x__skew,gyro_x__kurtosis,gyro_y__mean,gyro_y__var,gyro_y__std,gyro_y__skew,gyro_y__kurtosis,gyro_z__mean,gyro_z__var,gyro_z__std,gyro_z__skew,gyro_z__kurtosis
1,-0.80631591796875,0.006749594277143478,0.08215591443799697,0.6049299358889183,-1.037945089255776,0.218349609375,0.0019977110862731927,0.044695761390462885,-0.4033634111873185,-1.4667046071123457,-0.4260888671875,0.0002262337446212769,0.01504106859971315,-1.434295766250601,3.918098724187737,-3.120625,22.487754296875,4.742125504125234,-0.6634364494600159,-0.5664872405682284,41.153125,234.07916992187515,15.29964607178464,-0.30692490281801516,-1.1989408685485017,7.9725,30.139087500000013,5.489907786110803,0.5166208759791158,-0.8009160901138066
2,-0.787744140625,0.0064081311225891125,0.08005080338503238,-0.4685657752524817,-1.1503499055796713,0.4264697265625,0.023490972971916203,0.15326765142037052,-0.7503166276573299,-0.80042116554305,-1.069287109375,0.06585341453552244,0.25661920141626665,0.41232094190417795,-0.7251409838255398,-2.1125,138.14265625000004,11.753410409323758,0.26127936652687955,-1.2816367156707185,6.516875,2470.920223046876,49.70835164282634,-0.8907711583866994,-0.29534169979939273,25.215625,284.62065429687516,16.870704024932543,-0.7007771037254227,-0.2474705034982816
3,-0.62091064453125,0.03826085850596428,0.19560383049921154,0.8849307912689391,-0.4512750491689834,0.3680029296875,0.002627489829063416,0.05125904631441572,-0.9966047952896961,0.5643322605275296,-0.727021484375,0.1439763060569763,0.3794420984247482,0.8651153670314833,0.6169237889898076,-21.14,245.2521187499999,15.660527409701114,0.833494855740836,-0.27001655482578135,-209.46125,5787.848264062499,76.07790917252194,-0.457156076859561,-1.468612767154546,-10.553125,66.48643554687499,8.153921482751413,0.5464465542203701,-0.5805845856523528
4,-0.3838525390625,0.031232310080528278,0.17672665356569245,-0.16968625231555226,-1.1888137892337525,0.12354248046875,0.02354707295298576,0.15345055540135968,0.37690722556107714,-0.8900487798104995,0.95687744140625,0.09772106010317802,0.31260367896616,-0.28345039356254514,-1.3714609906308708,9.77625,1280.6727484375,35.78648835017904,0.40979433334794324,-0.5073529921358597,-160.87875,15505.786235937494,124.52223189429867,-0.025129209667372164,-1.6868605686706983,1.90625,399.2003515625,19.979998787850313,-0.1228422394431714,-1.487211413829079
5,-0.78195068359375,0.005226653403043748,0.07229559739737786,-0.0723357509012076,-0.5487768581545858,0.29069091796875,0.0032373524367809324,0.05689773665780505,-0.009302379923798381,-1.2487399603148384,0.72372314453125,0.01312518197894096,0.1145651865923543,0.10376966547997397,0.999424216570238,-14.248125,606.9538636718751,24.636433663821457,-1.171327868179761,0.5194444567245244,105.463125,1463.7998511718754,38.25963736330855,0.36735284313020455,-0.8893102489929379,13.46625,40.06222031250002,6.329472356563382,-1.0896471207990632,0.29967385120766865
6,-0.74713134765625,0.0040875677764415745,0.0639340893142428,-0.3473331020409337,-0.8929282838680717,0.35917724609375,0.005540437334775923,0.07443411405246873,-0.1275653245208104,-0.8100712367607996,0.02342529296875,0.044045982807874716,0.20987134822999234,-0.06622018430626224,-1.0391201182489915,9.164375,265.2879417968751,16.287662256962324,1.1496000915859987,0.3723349009343302,164.684375,230.44416992187507,15.180387673635844,0.10746981761931487,-0.36123927457211336,19.683125,132.41658242187498,11.5072404346948,0.3216653648812643,-1.3172485889358354
7,-0.5464208984375,0.010858514332771295,0.10420419537029829,-0.01976753274295086,-1.2548263592061226,0.4880126953125,0.004607624411582948,0.06787948446756904,-0.6506051601871093,-0.732388366057033,-0.65002685546875,0.07464740573763846,0.2732167742610956,0.8125683407921577,-0.7870635482538555,17.7625,1514.40375,38.91534080539447,0.5715740395837061,-0.447539751477251,139.2575,1878.2761937500006,43.339083905292696,-0.058507275158916926,-1.1722209098824772,6.05625,222.31707031249982,14.910300812274038,0.31192934973658576,-1.1091915508032606
8,-0.475341796875,0.0027700614929199218,0.05263137365602309,0.9027453211165023,0.4056746349131912,0.375107421875,0.0547093407154083,0.23390027942567382,0.5978209281468457,-0.7287692027776149,-0.780107421875,0.008503905391693115,0.0922166221008616,-0.05513437966805242,-1.0124103338828894,-0.13875,175.3947328125001,13.243667649578802,-0.04967748207464305,-1.1907696214279526,24.00875,246.38132968750023,15.696538780492348,1.5610252832277398,0.878346576989169,-21.820625,926.3508324218753,30.43601209787306,0.1517800779446772,-1.314922201549817
9,-0.630166015625,0.008892163896560664,0.09429827090970791,0.7033829973433516,-1.1331713944218693,0.4172412109375,0.0007445895433425906,0.027287168107786315,-0.03315527665948203,-0.6499923985152232,-0.924423828125,0.03940437235832213,0.19850534591874883,-0.20365945080793385,-1.6705731180642642,18.27,37.85116250000002,6.1523298432382525,-0.06152555484995545,-0.776773376526358,27.563125,122.46441367187494,11.066364067383422,-0.22882205375958556,-1.4209937241464843,6.384375,8.462763671875003,2.909082960638112,0.866578893981006,1.1192369734977392
10,-0.454033203125,0.0233719361782074,0.15287882841717293,-0.437214627880672,-1.4636853799002822,0.459296875,0.002498232221603394,0.049982319089888115,0.24643196457520414,-1.4724390604517041,-1.5830712890625,0.02457621767520904,0.15676803779855458,0.46332119048925086,-0.7584014093902884,14.66,45.750571875000006,6.763916903318669,-0.7315236816990183,1.1262173332181433,-17.3825,3045.768146875,55.18847838883584,-0.5479464295774471,-0.9496286320657275,21.900625,13.103366796875001,3.6198572895730297,-0.5744824663860058,-0.48456234880724924
11,-0.05927734375,0.034951530694961555,0.18695328479318452,0.3154949591923445,-1.3112289523125806,0.3225146484375,0.014807268357276913,0.12168511970358953,-0.8695719367365227,-0.515670759544689,-0.614501953125,0.5738724637031555,0.757543704153863,0.7194507935175447,-0.7120361224709324,-33.8475,638.8825249999998,25.276125593136296,-0.8941434833558468,-0.23803283288929888,-253.74,5417.857165624998,73.60609462282996,0.16503036763955942,-1.327501442234958,16.004375,226.82080117187502,15.060571077215997,-1.9928444605197124,3.7415862636832715
12,-0.591044921875,0.17980329475402826,0.42403218598831416,0.6705416589175254,-1.1970366051142913,0.20716796875,0.0666272608280182,0.2581225693890757,-0.40956658667545076,-0.7214840264056512,0.70847412109375,0.10816776763796802,0.32888868578588715,1.0785812249509605,-0.18010386865431283,-8.71,1822.774493749999,42.69396320031673,-0.03857630676943757,-0.809531149215255,-96.818125,6749.921726171872,82.15790726504584,-0.5085619928413948,-1.3833616432084404,3.155,931.5720687499997,30.521665563170036,-0.23239099595912738,-0.967767159330438
13,-0.99107177734375,0.0014085522353649144,0.03753068391816108,0.20002245392688342,-1.6117442659625956,0.49486572265625,0.005135465210676192,0.07166216024287987,0.43826352358268605,-0.49053655800635276,0.392138671875,0.0021408593654632588,0.046269421494797826,-0.5614526055341976,-1.0659643270212404,4.01125,26.404951562499996,5.138574857146677,-1.1908294979472518,1.4175594608971984,16.915,355.82816562499994,18.86340811266617,0.2943022441302473,-1.186346975173441,4.12,10.391928125,3.223651365299914,0.13339717014819738,-0.9770827963915663
14,-0.72608642578125,0.01832505986094475,0.13537008480807253,-0.08317866799172681,-1.4859373339756665,0.381044921875,0.0027370788097381598,0.05231709863647027,0.5704100386100749,-0.7943451589645707,0.23734619140625,0.041136120623350154,0.202820414710527,-0.1833360264319197,-1.4982413893430635,-7.1725,110.43516562499997,10.508813711594662,0.15542424035730573,-0.8519949668541944,106.2825,471.99597499999976,21.725468349382016,-0.9714708091083052,-0.433245842331373,-6.21875,32.2247265625,5.676682707576671,0.6828972214761643,-0.22134224367904887
15,-0.62182373046875,0.009733515375852583,0.09865857983902152,-0.5216061065077023,-0.7226783820576261,0.34572021484375,0.0024445369899272927,0.04944225915072341,-0.9142906077270211,-0.33436696985664316,-0.406806640625,0.038159809207916257,0.19534535880823034,-0.4880963759833088,-1.1753072587423283,-2.873125,235.5400355468751,15.347313626393223,-0.03864565272824485,-1.5997068827246976,99.83875,105.2411859375,10.258712684226028,-0.03532240302621965,-1.1424766171202632,2.083125,84.98305117187502,9.218625232206536,0.5182953146957492,-1.2785425971538857
16,-0.7073388671875,0.01135792448520661,0.10657356372575053,2.009513483225136,5.151239393475446,0.5875390625,0.04230598011016846,0.2056841756435542,1.9922828052937722,3.455566539494261,-0.7629150390625,0.01710077106952667,0.1307699165310075,-0.4079238004792968,1.3301850087703153,21.37,1299.956303125,36.054906782919296,1.6150660242404902,3.0420550382824416,66.343125,391.98121054687516,19.798515362190045,0.23649073734266124,-0.31923173678480055,14.8375,384.36656249999993,19.6052687433761,-1.430361987460088,1.5448195549009602
17,-0.49899658203125,0.0018738793075084698,0.04328832761274649,0.23420495702246386,-0.2783400620821248,0.3991796875,0.013666437768936146,0.11690354044654142,-0.5322468040202363,-1.2668288523434033,-0.981943359375,0.13084699382781986,0.3617277896814397,-0.3909841085495522,-1.225122197159349,19.756875,395.0090542968754,19.874834698605053,-1.391508827725536,2.922232191050562,76.748125,120.33753554687493,10.969846651019099,-0.19594964120124436,-0.5925496268462935,3.660625,142.29173867187492,11.928610089690874,-1.7433806070090623,2.296114489935574
18,-0.17855712890625,0.008088044708967205,0.0899335571906683,-0.8163773175657378,0.04574734092766253,0.49935791015625,0.006712969130277631,0.08193271099065154,-0.17526562921963268,-1.7276869002089599,-1.6405908203125,0.04219808461666107,0.20542172381873605,0.9474906620137701,-0.44574103985043,1.464375,94.81509804687498,9.73730445487225,-0.4787802516000633,-0.14660941173119735,-97.699375,10062.183257421879,100.31043443940355,-0.04562753942819483,-1.3525125049836308,11.905625,17.452616796874985,4.177632917918349,-0.31728464154598673,-1.0788506822972825
19,-0.0127734375,0.046233298635482784,0.21501929828618357,-1.3998238891863124,2.8614803513272324,0.1790283203125,0.02625159084796904,0.16202342684923388,-1.0358150392639747,-0.031607539926908235,0.1999169921875,0.6478999734163285,0.8049223399908395,-0.17701211908022088,-1.4388386552769417,-33.950625,890.2778355468749,29.837523951341453,0.7046133090225872,-0.4936088010735533,-275.445625,4762.259816796875,69.00912850338624,-0.08580291827913017,-1.44090139808715,4.549375,532.463694921875,23.075174862216645,-0.635075035006522,-0.8897080428751569
20,-0.90280029296875,0.004584796017408368,0.06771112181472382,1.27121086836469,0.6167124711426126,0.40646484375,0.04009837422370909,0.20024578453417963,-0.5090145858297551,-1.1140391296536207,0.61205810546875,0.213348239058256,0.46189635099041,1.4480901115284794,0.853639080125427,-22.028125,1201.0292480468747,34.6558688831614,-1.2336771228944112,0.527763317077472,-11.271875,841.1725292968754,29.002974490504855,-2.5516162318152324,6.891897007319189,-5.768125,645.0417417968749,25.397671975928716,-1.323029668487551,0.4202094528770548
21,-0.953505859375,0.000265638017654419,0.01629840537152083,0.403614092833976,-1.1024041442911177,0.459755859375,0.0034065350532531745,0.05836552966651784,-0.21111077110964482,-1.015060327631499,0.2916064453125,0.006391315674781802,0.07994570454240679,0.4817489024093331,-0.01703526725908988,7.02,18.479521875000003,4.298781440710845,-0.9036020261634827,0.7202614511815799,6.128125,61.940341796875,7.870218662583334,1.8623700389876847,4.181594589160708,-7.751875,29.72776992187501,5.45231784857367,-0.15862638045992672,-1.304418289861283
22,-0.8156396484375,0.008273671889305114,0.09095972674379092,-0.09424033945462819,-1.138402987331816,0.31580322265625,0.004933753556013109,0.07024068305485866,0.3051558173006223,-1.1340374306220629,0.28029541015625,0.03688981663584709,0.19206721905584798,-0.2929971737360286,-1.6324150474046086,-3.170625,266.297957421875,16.318638344600785,-0.24439731726949404,-0.9332916979395622,94.92,608.1838343749996,24.661383464335483,-0.6492186558878249,-0.8451533697989335,-16.33625,51.151857812500005,7.152052699225587,-0.17323076763241999,-0.48822846997426206
23,-0.7310205078125,0.0015665621995925912,0.039579820610919796,0.43004178674484544,-0.6944938644374901,0.3003662109375,0.00502338230609894,0.07087582314230248,0.08189756537481357,-1.2100091159027204,-0.219794921875,0.024709799385070803,0.15719350936050383,-0.7193094208456385,-0.6697051400550822,-6.630625,140.92235117187508,11.871072031281551,-0.510465521458656,-0.8808246150109174,107.56375,47.8403109375,6.916669063754605,-0.09596477913694815,-0.7027803750195627,-0.676875,99.94078554687499,9.997038838920002,0.2657561499019231,0.031858855149065946
24,-0.5959716796875,0.012802084088325503,0.1131462950711401,-0.1938109900778878,-1.3165691585689046,0.341220703125,0.009817464971542355,0.0990831215270409,0.16427298706291546,-1.1957057025096427,-0.65536376953125,0.014657237118482585,0.12106707693870611,-0.10187294569494199,-1.073128750263036,1.31375,127.59507656250001,11.295799067020447,0.03756905875669737,-0.8355360175541278,118.53875,121.21123281249987,11.009597304738255,-0.07456692281624208,-1.2538986215415147,2.568125,218.2532105468751,14.773395362843138,0.3351729659309084,-0.9839332301374881
25,-0.33339599609375,0.001365558022260665,0.036953457514293096,-0.5828471385300201,0.3049481463251489,0.52810302734375,0.004426356428861618,0.06653086824070176,-0.9495430882579964,0.723462214253566,-1.246337890625,0.056586582660675046,0.23787934475417374,0.5844780062579594,-0.7211756468030397,4.05125,107.1916703124999,10.353341021742686,-0.3634844228791527,-0.8840189073890685,64.470625,1191.1751917968752,34.51340597212734,-0.11818015444742211,-1.4726754367246293,4.426875,197.91492617187495,14.068223987834248,1.2342089348531793,0.2774942169789969
26,-0.3421728515625,0.0010345344781875609,0.03216418004842593,-0.3493403659244294,-1.0706681890144216,0.53409912109375,0.005422229832410812,0.07363579178912122,-0.7363698753094186,-0.4093210918055865,-1.53185791015625,0.03847270786166191,0.1961446095656516,0.8550299825764391,-0.44336253605739184,8.283125,55.49058242187499,7.449200119601768,0.0946830799347236,-1.243944954431558,-93.374375,5452.290976171873,73.83963011941401,-0.05630322926396433,-1.5467945693326897,-24.238125,151.00200742187502,12.288287408010728,-0.3162246779847184,-1.4911022690262934
27,-0.15689208984375,0.05558714110255243,0.2357692539381512,0.38357962746958185,-1.3877811551901742,0.23663330078125,0.0168124620616436,0.12966287850284522,-0.18906763694231224,-0.8045095205224078,-0.5046630859375,0.29408864915370936,0.5422994091401072,1.1669172016942289,0.39503098189630226,22.92125,289.3805953125001,17.011190296757604,0.32036338556966126,-1.3442214444929381,-280.39,2577.520712499998,50.769289068294015,0.5130021792870683,-1.3863019498275069,-34.233125,87.922254296875,9.376686744094366,-0.28433000765017485,-1.3248014564921948
28,-0.62773681640625,0.1107890883624553,0.332849948719322,1.1080798882864349,-0.1656516393291141,0.097421875,0.01770715346336365,0.13306822860233636,-0.07619577335230805,-1.4305743829791424,0.954248046875,0.25376571297645567,0.5037516381873668,0.26773034411908675,-1.1967294638694248,11.289375,1211.3380199218748,34.804281632033074,0.9145289466456827,-0.4994200145628058,-71.115,10497.644978125005,102.45801568508442,-0.8611104408293045,-0.8862454059356191,-12.339375,309.959473046875,17.605665935910377,-0.4714902319958607,-1.3428998212457381
29,-0.96982421875,0.00015768647193908686,0.012557327420239024,-0.32115566212407265,-0.832474992125928,0.2220947265625,0.0008694416284561153,0.02948629560416356,-0.2651675560517918,-0.5039051686575431,0.372392578125,0.004500114774703981,0.0670828947996729,-0.9618692854710369,-0.6160045424983425,0.604375,19.855160546874966,4.45591298690571,-1.1016661548267066,1.6984039277387604,-3.410625,21.058379296874993,4.588940977706621,0.8300829463967628,0.22679239516423477,6.084375,14.603857421874999,3.8214993682944653,-0.41741593976366137,-0.7334283259681005
30,-0.942158203125,0.0015978296756744388,0.039972861739865945,1.6840309678367273,1.924450916260792,0.1858056640625,0.0012538848161697386,0.03541023603662843,-0.15643428973870355,-0.5930641958569591,0.43197021484375,0.003068088740110396,0.05539033074563101,-0.16067644799657468,-1.3572035207438022,1.6175,16.551193749999992,4.068315837051002,-0.20585052979417492,-0.83842492171995,27.866875,488.7447386718748,22.10757197595147,0.6717057511824286,-0.9670325542066114,3.446875,6.700810546874999,2.5885923871623744,-0.1831234337251196,-0.8986881722680597
31,-0.773671875,0.008602411651611328,0.09274918679757428,0.06441997728496378,-1.2395907742220946,0.12351806640625,0.005204763716459273,0.0721440483786381,0.6614174434742401,-0.620596493151016,0.28986328125,0.026118921136856082,0.161613493053198,-0.8524352306707136,-0.4316888629166815,-13.86,72.838446875,8.534544327320587,-0.4254666796119335,-0.9212810274492176,128.22,791.8766000000005,28.14030205950179,-0.3258070254015523,-0.8810453277035801,12.84875,109.7481390625,10.476074601801,0.6585679915828073,-0.8326380381395548
32,-0.56951171875,0.005804720020294189,0.07618871320802176,0.1905349375670664,-0.4768526560734059,0.33239990234375,0.03197791993021966,0.17882371187910082,0.3976622688324997,-0.8759743018451194,-0.40981689453125,0.04775849210619927,0.21853716413049581,0.26569880413237035,-1.3353114098973569,-6.345625,437.266519921875,20.910918677137907,-0.07607941541876002,-0.8347206555783067,178.791875,403.7643792968753,20.093889103328785,-0.4214386256490284,-1.1849507046418102,49.535,199.65502499999994,14.129933651648898,-0.25030872289034234,-0.8705358375423224
33,-0.3700537109375,0.002400310778617859,0.048992966623974295,0.39498211103925834,2.7102197462942854,0.4815234375,0.07660499439239503,0.27677607265151194,0.15439019963790224,-0.9125477654019729,-1.113232421875,0.016281478404998776,0.1275988965665408,-0.33212326377640783,1.0496967531830048,18.028125,292.3061230468751,17.096962392392253,-0.03946370028309501,-0.7277572748362524,99.838125,1750.097429296874,41.834165813326244,0.8021355380438931,-0.8065149322350025,-18.769375,591.6805230468749,24.324484024268116,-0.30086911414006173,-0.9446544766616234
34,-0.22273193359375,0.01895577513575555,0.13767997361909812,-0.285254766929802,-1.4801671342640925,0.42761474609375,0.005567205542325974,0.0746137088096147,-1.919381083693111,2.597619532720259,-1.6735498046875,0.015169943594932558,0.12316632492257192,0.13475508301493022,-1.4449399892670365,0.713125,133.24860117187504,11.543335790484267,0.04791798038004383,-0.5287281698146815,-19.091875,2392.950191796875,48.91779013607294,-0.7310979415205714,-0.8502039657304974,20.160625,44.184394921875,6.647134339087408,-0.982348017879015,0.18489450288745468
35,0.010166015625,0.028639671230316157,0.16923259505874202,1.2875292494651998,0.20009846505204054,0.3601416015625,0.01597200276851654,0.12638038917694683,-1.10411022392688,0.2889824786437045,-0.9200341796875,0.32214966228008257,0.5675822956013362,0.21311972123062195,-1.0273187611319876,-32.75125,206.48601406249998,14.369621221956407,-0.6403363774690337,-0.6184163565337983,-305.0725,6231.747634374995,78.94141900406272,0.5989237607296636,-0.8696010610026828,-8.3525,61.35894687500002,7.8331951893847265,-0.08769057781198737,-0.7925936219968412
36,-0.517333984375,0.2125580155849457,0.4610401453072668,0.7179218222430296,-0.7042930853578779,0.1288720703125,0.015499502444267264,0.12449699773194237,-0.4216682442051586,-1.0770474693549188,1.03607421875,0.1834065116882325,0.42825986467124433,-0.24120405576651438,-0.9695909607494806,-13.0725,1414.7117749999995,37.61265445298962,0.1437162910551429,-0.9331959350129022,-116.659375,13351.450654296863,115.54847750748108,-0.45349122919062057,-0.9462072574170222,-11.3475,176.71041562499994,13.29324699330453,-0.24732874057875132,-0.6478405672600602
37,-0.95669189453125,0.0005589114367961883,0.023641307848682746,0.8582455857676169,-0.6108462389884446,0.41469482421875,0.0025020075976848605,0.050020071948017636,0.04447324739916197,-0.8283864606668372,0.3808349609375,0.0066764754056930576,0.08170970202915354,-1.3851096463267434,0.38766945633761507,2.791875,53.514301171875005,7.315346961824504,-0.375033903877686,-1.209575820291024,1.40375,24.430735937500014,4.9427457892855475,0.3592669439723121,-0.32841937459581105,3.765,24.64594687500002,4.964468438312406,0.2784618162198103,-1.1223220322693914
38,-0.92844482421875,0.0006270612418651579,0.02504119090349255,0.8503713916502232,0.3348862114961686,0.36337158203125,0.0007032414138317104,0.026518699323905583,-0.2814259883342598,-0.04794329610830461,0.33269287109375,0.0019410291850566865,0.04405711276351058,0.844191486823649,-0.6550405005057947,7.529375,26.26089492187502,5.124538508185398,0.03187123709871264,-1.1526605050038308,22.50125,197.9830453125,14.07064480798588,1.1657611873796365,0.4169503303926252,0.565,18.681946874999998,4.322261777703891,0.43126244279037973,-0.8895316493755869
39,-0.774677734375,0.003637399291992186,0.06031085550704936,-0.017841957391990772,-1.1508828515174114,0.31644775390625,0.0014854849040508277,0.038541988843997496,-0.043441814167904096,-0.8361039454511392,0.283466796875,0.006694858884811408,0.08182211733273227,-0.2580432723922342,-1.281290317982327,3.08125,40.95730468749996,6.3997894252467376,-0.09330048989173664,-1.2864205173329946,116.46,1055.4172281249998,32.48718559870953,-0.23350666688856722,-1.3210439649897316,-3.016875,24.020066796875003,4.901027116521087,-0.486281993782854,-0.997978311530257
40,-0.629697265625,0.019944235229492183,0.14122406037744484,0.10110176554753564,-1.22117043826776,0.30587646484375,0.00784834463000298,0.08859088344746868,0.6144796232469933,-0.6414916048760291,-0.33998291015625,0.08165456444621086,0.2857526280652741,0.14553453788678503,-1.18011226096622,12.459375,243.48206054687498,15.603911706584185,-0.6711317492069016,-0.46899991369282157,180.094375,188.93238242187505,13.745267637331587,-0.24874016551761705,0.2909067546182178,2.09625,188.8008140625,13.740480852666693,0.33404294482759633,-1.2042473295030285
41,-0.301328125,0.0065187586784362875,0.08073883005367546,-0.03718453823565165,-1.4430917512571877,0.3841748046875,0.0076961900949478156,0.08772793223909826,-0.15248213757311238,-1.147698536543162,-0.97869140625,0.02802224407196044,0.16739845898920466,0.24024191747717819,-1.1372997370625435,-3.025,98.67257812499999,9.93340717603985,0.4007070039578709,-0.5163389534258815,101.89375,568.3362890624999,23.839804719470752,-0.295921174639915,-1.0658413915415812,15.135625,223.83562929687494,14.961137299579699,0.5129944152825818,-1.0737979168038978
42,-0.25494384765625,0.001760358065366745,0.04195662123392141,1.4856576987329129,1.3672716389210926,0.45439697265625,0.0092837670981884,0.09635230717626019,0.5857933612007576,-1.0200849138743981,-1.26124755859375,0.01738938242793083,0.13186880763823883,-0.8314447020779454,-0.6537631437077018,8.29,27.33464999999998,5.2282549670038065,-0.014557995736786514,-1.3198451340022064,29.8775,151.46015000000003,12.30691472303274,-0.8905672097148541,-0.1374441197777756,2.194375,159.58553867187513,12.632716994846165,-0.20145765116196476,-1.2075546755486308
43,-0.11890869140625,0.0014046518504619596,0.03747868528193004,0.17945348915590778,-1.3985283644460114,0.52061279296875,0.008066768950223922,0.08981519331507294,-0.3991994703904945,-1.01579577926966,-1.563310546875,0.017117484664916985,0.13083380551263113,0.5035353391937644,-1.0953805565007109,-6.4025,113.17736875000004,10.638485265769749,0.07508614686633366,-0.9775084564067429,-119.324375,6239.422007421879,78.99001207381778,-0.20433373404430402,-1.1449881058994311,-10.3775,229.5500718750001,15.150909935545128,0.9432100820254599,-0.3042390530997401
44,0.013134765625,0.06991018652915958,0.26440534512214303,-0.3773857017594941,-0.7343485069351599,0.16961669921875,0.014125247448682786,0.11884968425992046,-0.45800142847052006,-1.266032400123586,0.09982666015625,0.8428119860827923,0.9180479214522477,0.3801660382702756,-1.1810901113802108,-42.78875,1382.8769359374999,37.18705333765368,0.32369076606111036,-0.24212219381377986,-314.04625,6271.258876562497,79.19128030637273,0.7181136627899576,-0.4404033203961104,-17.071875,182.61659179687467,13.513570653120317,-0.23368307971492464,-1.023155941589327
45,-0.90461181640625,0.024195845478773088,0.15555013815092897,1.7590721693122167,1.756663303928538,0.25133544921875,0.01570815975069999,0.12533219758186637,-0.09030986412057077,-1.7786918823367164,0.61829345703125,0.12715107495188713,0.3565824938943121,0.2876345502576349,-1.518276928789684,-1.03375,1120.5601890624991,33.47476944002003,0.19491355032047117,-0.6123537189956689,-18.453125,2152.230029296875,46.39213326951968,-1.0759135945875387,-0.3318544568810662,-6.211875,109.59178867187495,10.46860968189544,-0.14981045873868137,-1.3520171579557592
46,-0.9319140625,0.0014816204071044913,0.03849182260044971,-0.13234387841712264,-1.1752460941172238,0.35429443359375,0.0012842162787914274,0.035835963483509516,-0.27333123963937134,-1.0887475479483995,0.36466552734375,0.0059074783980846415,0.0768601222877289,-0.09293386232372375,-1.469875641212406,8.00875,28.68390781250001,5.355735973001284,-0.5173400451368683,-0.02543432741052376,24.170625,178.68639492187503,13.36736305042528,-0.34043078017418693,-1.2820724607491747,3.700625,4.362054296875001,2.0885531587381254,0.4161415013127769,-0.9878093459364652
47,-0.80689697265625,0.010840471237897872,0.10411758371138792,0.5928216000078164,-0.9391121248674681,0.2480712890625,0.0017137211561203014,0.04139711531158061,-0.7841481781143993,-0.43478825459592896,0.423544921875,0.008493599557876586,0.09216072676512803,0.3435445530758794,-0.4522184932016793,-9.974375,168.03625742187495,12.962879981773916,-0.27788797901597817,-1.6504192211969984,91.29625,1377.8053609374997,37.11880063980381,0.6398243344669315,-0.8776502691708945,11.948125,35.724379296875,5.97698747672061,-0.532694281107409,-0.9411683412499618
48,-0.52652099609375,0.006957326716184622,0.08341059115115192,0.8069513789888727,-0.38304674041939046,0.39281005859375,0.01731310531497001,0.13157927388069146,-0.7506018811570057,-0.6617295686523459,-0.29574951171875,0.07046722876429556,0.2654566419668108,0.1839292138011973,-1.1692130212740364,15.719375,1173.182929296876,34.25175804680507,0.5501959630167779,-1.348528484897666,160.800625,636.865444921875,25.2361931543146,-1.2414360264043096,0.5422336803077394,22.529375,170.19784804687498,13.045989730444946,0.08006649137705117,-1.1461743129869462
49,-0.47707763671875,0.0027176653087139123,0.05213123160557318,0.2466009383088909,-1.09850265431913,0.52752685546875,0.006924586743116379,0.0832141018284544,-0.15094528895962853,-1.38969023103628,-1.1809765625,0.019797983264923106,0.14070530645616428,0.6421472641487305,-0.37794021286456925,16.19875,235.1249515625001,15.33378464575853,0.3403747568724898,-1.020043957849308,93.40875,2091.0217515625,45.72769129928276,0.37734905943404107,-0.9130807914816423,8.75,66.331484375,8.14441430521557,-0.732297321327912,-0.7148739268817619
50,-0.39848388671875,0.0064984973609447496,0.08061325797252428,0.8254962727470073,-0.7782204984185399,0.57781494140625,0.00115993840098381,0.03405786841515203,-0.3873869503577756,-0.5971860495012677,-1.53579833984375,0.02890378195643426,0.17001112303738913,-0.01129155187905348,-1.313746993834332,13.173125,39.115691796875005,6.2542538960994385,0.6632368724695562,-0.5084711500276091,-20.319375,2050.3755386718753,45.2810726316402,-1.1559374983539032,0.2513057015694473,1.476875,16.384973046875004,4.047835600277636,-0.49213880766385304,-0.985995784084488
51,-0.11281494140625,0.03251267563700678,0.18031271623767076,0.6841441094477716,-1.1952264078776524,0.322158203125,0.027211013221740722,0.16495761037836576,-1.0212073973338578,-0.2896571933153447,-0.6176171875,0.39721520199775695,0.6302501106685797,0.32799810931466344,-0.8241900611016226,-31.821875,179.242607421875,13.388151755260134,0.013511553730702501,0.4502651933168469,-264.946875,3504.420810546874,59.19814870878036,0.09306318275093711,-0.9608719003224504,-2.239375,59.657426171875,7.723821992503129,-0.5990087529049485,-0.7159257516655595
52,-0.6909814453125,0.10821360304355629,0.32895836065307155,0.4613781890333412,-0.9413881294064521,0.195693359375,0.01955206670761108,0.13982870487711413,-0.038372247634029556,-1.2743218650099726,0.8500341796875,0.09072407438755033,0.30120437312155734,-0.7898846133612873,-0.5510800186825828,6.256875,1803.0147574218752,42.46192126390273,0.9293511086316365,-0.5597656672379152,-62.608125,5466.438426171877,73.93536654519187,-0.13602775352946067,-1.33337119317019,-14.588125,205.12828867187497,14.32230039734801,-0.20179687724432113,-1.1411801062238922
53,-0.97725341796875,0.001605478590726853,0.040068423861275765,-0.04981590749666528,-0.9771907403869955,0.4487060546875,0.001484931111335754,0.0385348038964227,0.036703253360695236,-0.7801079466715346,0.31125732421875,0.0017946208655834194,0.04236296573167912,-0.20706453956988954,-0.7831209393596934,-8.9175,104.41452187500005,10.218342423064518,-0.42035216733235276,-1.1499616341490277,7.78875,12.9948265625,3.6048337773744854,0.23080245870087487,-1.2579034162759113,0.97625,9.904748437499997,3.14718103030315,0.5696724629260711,0.04206311609449065
54,-0.88347412109375,0.0009520951449871065,0.030856039035934386,0.14970283977791068,-1.0494647526206815,0.315771484375,0.005766351222991942,0.07593649467148153,0.40771018528710445,-0.798374367410255,0.37503662109375,0.003562407940626144,0.05968591073801374,0.16523081371337028,-1.2003510562394377,-2.21875,20.8982421875,4.571459524867304,-0.1876920464982984,-1.4911006023266484,47.176875,1020.0101605468751,31.937597914478086,0.6314859577060916,-0.669238437125546,2.5675,21.17356875,4.601474627768798,1.104461934442567,0.46431136312274957
55,-0.64394775390625,0.007693008059263235,0.08770979454578169,-0.23545165917708497,-1.358497773562874,0.30955078125,0.0016734655857086193,0.04090801371013532,0.13586896807097598,-1.089122280213826,0.10107177734375,0.08312278091311458,0.28831021645636246,-0.23929726653888994,-0.5780498805836705,-6.6525,66.5765875,8.159447744792535,-0.7910206807468689,-0.40682775899624035,160.871875,246.27081054687503,15.693017891625404,-1.2173080863113297,0.4165648512469722,9.34375,45.4094140625,6.738650759796059,0.21500951076827068,-0.600164687055718
56,-0.53188720703125,0.0012624763190746302,0.03553134277049814,-0.7818140181844774,1.6067889714345913,0.47946533203125,0.0046766446769237495,0.06838599766709373,-0.5248304611569254,0.21155455868234396,-0.72541015625,0.04524238834381108,0.21270258189267727,0.44508214965902365,-1.3391841736095969,9.7275,186.00418124999993,13.638334988186788,-0.25240094642764666,-0.8147697120763016,133.54125,1034.9153296874993,32.17009993281804,0.6895420883219611,-0.7662284757154998,15.481875,160.78447617187493,12.680081867711854,-0.4219380568224688,-1.077268927985216
57,-0.394951171875,0.0017102027893066407,0.041354598164008806,0.19385882855787262,-1.1302457954408451,0.56973388671875,0.029242611712217315,0.1710047125438867,0.6887454607332073,-0.650386791354626,-1.34910888671875,0.017793935984373083,0.13339391284602564,0.25016094926023036,-1.3977355873486579,14.256875,85.24577304687499,9.232863751127002,0.18706721463718778,-1.1005022342850679,48.78875,789.3442015625,28.095270092357183,0.05207198102969079,-1.1368736763547007,0.054375,294.0644261718751,17.14830680189374,-0.6613739608027297,-1.0976819259402766
58,-0.2893212890625,0.0008826718568801882,0.029709793955532377,-1.0471189473503697,-0.25171646108810375,0.591982421875,0.001729171419143677,0.04158330697700313,-0.3510770710652235,-0.7659205273294027,-1.46984375,0.03433701453208925,0.18530249467314044,0.5947366121193871,-0.8104109254774032,-8.23,101.0474125,10.052234204394564,-0.07244950989926728,-1.5181623850573531,-87.515,4208.103134375002,64.86989389828692,-0.062472996109131027,-1.232296286877454,3.738125,53.371929296875,7.305609440483046,-0.3060919746762401,-1.4837547942643838
59,-0.04028076171875,0.07482632696032523,0.2735440128394793,0.01815254596484407,-0.9318228040861549,0.2349462890625,0.03213754441738128,0.17926947430441492,-0.11918401479507085,-1.3376187980525018,-0.07234619140625,0.5654772055804727,0.751982184350449,0.6712898100963739,-0.836178726637558,-35.689375,250.86097304687505,15.83859125828036,-0.5859654170316534,-1.1486924645208587,-289.649375,3588.951710546877,59.90786017332682,0.09290066173322743,-1.3672266853488244,-14.13125,49.27730468750002,7.019779532684771,-0.2441010357472395,-1.162936601670581
60,-0.85222412109375,0.01701088225245476,0.13042577296092503,0.6166461149670296,-1.4052613170257133,0.2544970703125,0.02080787799358368,0.14424936046161063,-0.12873916116533574,-1.2917641722389026,0.6418505859375,0.12308449862003319,0.3508340043667848,0.8621897615850951,-0.7106757513979534,1.453125,881.236513671875,29.685628065982957,0.4210898224797213,-0.6941749282138368,-28.00875,1863.1653921875002,43.16439959257513,-1.8740628420805439,2.5621867979922177,-22.563125,475.88894492187507,21.814878980225288,0.36189489983359796,-1.4216431868237114
61,-0.94548583984375,0.0006934777438640595,0.02633396559320414,0.07522757093621542,-0.6132700192269827,0.38825927734375,0.0014861282050609595,0.038550333397533144,-0.5039584906484266,-0.9421906896147534,0.36216552734375,0.0025630393683910373,0.05062646904921414,0.7611746098366765,-0.6731855192188321,-3.173125,46.99936367187501,6.8556081912456905,1.1631838742618323,0.9338869593006827,0.92125,130.78950156249996,11.43632377831705,1.7931181714161937,1.8394076403556028,0.563125,6.682069921875,2.584970004057107,0.03201995135656943,-1.001834788481692
62,-0.78266845703125,0.005747614735364913,0.07581302483983153,0.08481824579070478,-1.312292699135919,0.241162109375,0.00072842001914978,0.02698925747681436,-0.33679162115024686,-1.0432823794644805,0.43780517578125,0.01240480586886406,0.11137686415438379,0.2718567893006618,-1.135072495561187,4.884375,120.75206054687501,10.988724245647218,-0.3773829037336734,-1.1602149425869894,104.934375,2237.797998046875,47.30536965342174,-0.1805769763489197,-1.1998160541598264,10.045625,33.32873867187499,5.7731047688289,0.5023765160203577,-0.8810890903117388
63,-0.579931640625,0.003146935701370239,0.05609755521740888,0.018653872595777065,-1.5243806569766238,0.36579345703125,0.007426088207960131,0.08617475388975666,0.1654403852294536,-1.0022098034540277,-0.3102294921875,0.07429339706897739,0.2725681512374059,-0.04535000437725408,-0.716150098939365,-0.948125,135.549223046875,11.64256084574502,-0.1539597231954624,-1.0616930494688832,146.27125,333.93251718749974,18.27382054162456,-0.024249701647440548,-0.14879554192875055,17.165,107.47871249999999,10.367194051429731,-0.2804663295016521,-1.019834812823884
64,-0.59135498046875,0.001415123575925827,0.03761812828844395,1.6886967588745503,2.577325267774989,0.573974609375,0.015830878019332886,0.12582081711439044,1.0133580222483316,0.35682890223262964,-0.9006689453125,0.015914549851417548,0.126152882850205,-0.5726901171269592,-0.30943764032346976,6.87875,325.8769390625002,18.052061906123082,0.35610545670984833,-0.5732502193920928,94.25125,363.4264828125,19.063747868992078,0.0665226485662222,-1.0696168480481767,8.966875,217.0459730468749,14.732480206905928,0.3834422477459364,-0.4215440884309918
65,-0.468369140625,0.0018154660701751716,0.042608286402707765,0.3885158715996969,-1.4329936937867558,0.5195849609375,0.01998865673542022,0.14138124605272165,1.3294011760152904,1.127179152344583,-1.060947265625,0.007436193847656256,0.08623336852782834,-0.5491629287412914,-1.2034265921361922,2.644375,54.00958554687502,7.34912141326261,0.22290030301428004,0.14495581746836983,32.41375,213.20904531250005,14.601679537385419,-0.001467312157941738,-0.1715888407497892,-3.695625,211.38981679687507,14.539250902191457,-0.7235162378920084,-0.96992793359385
66,-0.36913818359375,0.007532275313138965,0.08678868194147762,0.03758504527353897,-1.0844214352306385,0.65861083984375,0.010169925755262375,0.10084604977520129,-0.0019116080111427922,-1.2572123221776415,-1.3673486328125,0.03759709146022797,0.1938996943273196,0.12070387754160719,-1.1201228819669835,9.088125,127.72414804687493,11.301510874519165,1.0147326351504713,-0.3481503452034471,-78.8975,4585.24324375,67.71442419270801,-0.299722508091881,-1.333596936596744,2.325,186.17070312500016,13.64443854194815,0.011153573713348854,-1.5268248795628898
67,-0.29138671875,0.01417170701026917,0.11904497893766527,0.0560919328690977,-1.4532672434740255,0.32873046875,0.02228081402778626,0.14926759202112916,0.5021026170738531,-1.1582239681931534,-0.34302734375,0.31980752577781685,0.5655152745751585,0.2527878596785651,-0.9011844977108563,-20.581875,121.36356992187501,11.016513510266078,0.15415595031502588,-1.035246506560494,-271.9625,834.5985937500002,28.889420100618153,0.39213085625259525,-0.66204979592613,-16.2275,45.452853125000026,6.7418731169460635,-0.6048436680134459,-1.1864677728335524
68,-0.739580078125,0.042371421909332276,0.20584319738415519,0.51124192630377,-1.446217181392922,0.19776611328125,0.008615429848432537,0.09281933984053398,-0.6506494024266649,-0.7457549214179608,0.76624267578125,0.07219589049220086,0.26869292973988146,-0.6247252923970644,-0.9991907634443047,21.13125,1189.7161328124998,34.49226192659014,0.3321567662128862,-0.770059994168137,-47.070625,4649.744504296878,68.18903507380698,-0.733064231905358,-0.8448273813333915,-17.38875,189.83176406249993,13.777944841757058,-0.23312592222720366,-1.1254531075871275
69,-0.9277685546875,0.0017787301778793335,0.04217499469922117,-0.5287615501469078,-1.4390635086470196,0.4198486328125,0.00254715859889984,0.05046938278699117,-0.975512687388939,1.0232122065509195,0.29605712890625,0.0005457215011119845,0.02336068280491785,0.7038085147354748,-0.9082563330432141,-7.339375,74.68947304687498,8.64230715994722,-1.9951827968582851,2.904209246386264,-10.72625,18.741857812500005,4.329186738002878,0.22806586248653202,-0.5505824410154623,3.200625,26.057523046874994,5.104656996006195,0.567961123834155,-0.6239449494019369
70,-0.85140380859375,0.0006782297790050504,0.026042845063568812,0.22901005581263756,-1.2372794712725623,0.33735107421875,0.0023118272960185983,0.048081465202493553,0.7724883199338993,-0.48580655832256747,0.3874755859375,0.00529359042644501,0.07275706444356458,0.589692811250849,-1.2893008074870975,-4.599375,8.584382421875,2.929911674756596,0.03296073775867148,-0.2125174611947762,32.696875,706.7728417968744,26.58519967570066,0.9132518530173421,-0.059030245522608826,-0.991875,9.508488671874995,3.0835837384243345,-0.29420804952317586,-1.4940577663027463
71,-0.85805419921875,0.002456129902601241,0.04955935736670968,0.3559405270935933,-0.8155768669670826,0.33680419921875,0.0035650376975536325,0.05970793663788452,0.627142888848811,-0.9193141961494482,0.21363037109375,0.018574598377943046,0.13628865828799933,0.3112836075473392,-0.6534960088297783,0.675,117.47789062500013,10.838721816939492,-0.6676666465814518,-1.0382491558671947,139.944375,268.0727261718749,16.372926622075692,0.02110140908719067,-0.18094957476419538,15.0275,56.34690000000005,7.506457220287081,0.4187674104007744,-1.0836226501514774
72,-0.4372265625,0.022305283880233756,0.14934953592239167,-0.9640099446594853,-0.6883037930131777,0.37883056640625,0.0048667415320873255,0.06976203503401636,-0.3758836232950317,-0.9817641175020255,-0.449892578125,0.08837000980377198,0.29727093669541926,-0.28573224293965177,-1.15399175418308,22.985,155.11008750000002,12.454320033626887,0.555534608431267,-1.0495092928324576,183.28375,279.8642515625,16.729143778523156,-1.2831877390865174,0.8361272997660825,18.2675,90.12149062500006,9.493233939232724,0.4651546036675832,-0.9692884104125019
73,-0.1580712890625,0.01799854924678803,0.13415867190304184,-0.6242309975330711,-1.3582299752258753,0.55486083984375,0.030254824513196915,0.17393914025657628,0.993800998397649,-0.42792815507385296,-1.45375732421875,0.0965107573211193,0.3106618053786453,0.6029808995664586,-1.0877985883675882,5.67375,287.9795765624999,16.969961006510886,1.0047654095724223,0.12354151895746046,85.169375,2497.704710546874,49.9770418346952,-0.2733031348138993,-1.2977646981429845,8.89875,241.97076406250014,15.555409479100836,-0.055237034244281176,-0.7104698841794628
74,0.02550048828125,0.003953607529401781,0.06287771886289913,-0.12955468563359385,-1.5618209485253867,0.5901025390625,0.004603180670738222,0.06784674399511167,-0.14039285721320277,-0.6433466210964274,-1.50398193359375,0.12191466414332386,0.3491628046389304,0.24082301703856682,-1.1974158435770732,-19.91375,374.6867796874999,19.356827727897457,0.4271239048801539,-0.9618458404484951,-161.4575,9019.998350000003,94.97367187805263,0.1288692108489538,-1.0887788021594764,-11.74875,319.4192171874999,17.87230307452008,0.6703154972120521,-0.8398606499344043
75,-0.036494140625,0.06233921585083008,0.2496782246228735,-0.6820889926026055,-0.5238901850996385,0.13486083984375,0.027668901556730286,0.16633971731589028,0.3380609133204307,-1.2693325089754923,0.3426904296875,0.5950107183694839,0.7713693786827968,0.15080918877129093,-1.6290363367775784,-45.26,79.712790625,8.928201981642216,-0.5169670050436938,-0.5668276595928545,-312.476875,4278.335519921876,65.40898653795117,0.836057345612322,-0.793182991433143,-33.3775,47.239368750000004,6.873090189281674,-0.7546472444599408,-0.2749408183743913
76,-0.85523681640625,0.005645796507596969,0.07513851547373669,1.4644699861041022,1.4340632160110758,0.32954345703125,0.03355706297755241,0.18318587002700948,-0.735871841534627,-0.8051991683006667,0.9247021484375,0.06239885709285737,0.2497976322803268,0.2326345392482292,-1.6804868273674858,-11.586875,370.52038242187496,19.248906005845498,-0.6420745638962279,-1.3993898721998212,-18.951875,3391.2827230468747,58.234720940748694,-1.0171349746354958,-0.05672462745995421,4.381875,142.580069921875,11.94068967530247,-0.4036132171648231,-0.3277448224317796
77,-0.8276318359375,0.0035533654451370238,0.05961011193696103,-0.16972274908075866,-1.2281070155525544,0.3059033203125,0.0006463694334030151,0.025423796596948597,-0.9486438316226661,0.14450222547188574,0.57695068359375,0.01115898334383965,0.10563608921121441,0.35635049734673857,-1.0382488205717473,11.9175,27.6074125,5.25427563989557,-0.7211962947648213,-0.027653312106158623,98.911875,923.1450074218753,30.38330145691668,-0.43568304549681397,-1.4368745987220228,15.519375,55.904976171875006,7.476963031329967,-0.9791425886481804,0.11313666622298868
78,-0.61166015625,0.0051956957817077655,0.07208117494677627,0.35418366385070793,-1.0894490799151766,0.38001953125,0.002693236255645752,0.051896399255109714,1.375879056031596,1.3812247479488198,0.03736328125,0.07548603286743165,0.27474721630515503,-0.005730520667645735,-1.8228986693020066,29.896875,353.3301074218749,18.797077097832922,0.7737455175697795,-0.25622678980873737,168.295625,449.6612386718748,21.20521725123029,0.09058643726338984,-1.3644114147773927,32.44625,35.45164218750001,5.954128163509752,1.0858943003296246,-0.0746414129178361
79,-0.30986328125,0.017989110946655267,0.13412349140495586,0.1217889397042279,-1.0700346328563302,0.4330029296875,0.003974875426292419,0.0630466131230887,0.601786574562608,-0.981162459787579,-0.79836669921875,0.05982293354868886,0.2445872718452227,0.4843655897283273,-0.867026334374009,31.086875,743.4603824218748,27.26646992960172,0.9774426810288999,-0.274027697690157,164.971875,1091.492841796876,33.037748739841156,0.2595132195453903,-1.021349464005514,24.886875,68.844351171875,8.297249614894987,0.5574883311770515,-1.0733590070514087
80,-0.0915625,0.006087688112258909,0.07802363816343678,-0.381737189258888,-1.0309210913613522,0.67141845703125,0.003261166399717329,0.05710662308101687,0.2517107536713129,-1.2782394289843468,-1.37796142578125,0.008645349329710008,0.09298037066881379,-0.7905201573161328,-0.19433126487580665,7.496875,23.492373046874977,4.846893133428359,-0.37553274932484665,-0.9914248936556329,29.28125,1098.5284765625,33.14405642890592,1.1089210545345538,-0.09923087299955125,3.3375,221.51507812499986,14.883382617032993,0.7699883636496176,-0.16154058478775157
81,0.04470947265625,0.004458400791883466,0.06677125722856704,0.12161128544881955,-0.396065554829403,0.56015380859375,0.024444084042310715,0.1563460394199697,-0.4468659935624183,-1.0157355489519222,-1.47739013671875,0.1214770446956158,0.34853557163597493,0.9225944906958842,-0.18671419013810064,-28.36125,1064.2059046874997,32.62216891452038,-0.6046837349752099,-0.47739010353186506,-185.843125,16813.507460546887,129.66690965912193,-0.14073077310810517,-1.3017956836524756,-30.265,261.19219687500004,16.161441670686436,0.05709766111991758,-1.1605392263145804
82,0.0169287109375,0.20151657488346106,0.4489059755488459,-0.7523611150321156,-0.5770913320964053,0.13497314453125,0.01152091786265373,0.1073355386750061,-0.3855115824721862,-0.8672258708757528,0.708701171875,0.7578653022289279,0.8705545946285781,-0.2522564640983023,-1.645030725794282,-48.665,3393.4941031249987,58.25370463004906,1.0374284371379983,-0.10148333508396412,-298.8625,11187.42859375,105.77064145475342,0.751113240884706,-0.8741429108958405,-36.30625,585.6994921875001,24.201229146212803,-0.11278644268702955,-1.2174107385597202
83,-0.89953857421875,0.00436211048960686,0.06604627536513213,1.1566328651852436,0.26994813067613155,0.35602294921875,0.008568271225690842,0.09256495679084413,-1.8213061469202654,3.0116266529240967,0.7537158203125,0.07271329948902125,0.26965403666368737,1.4461405346427383,1.2711346318059737,-13.625,502.52265625,22.417017113121897,-0.7464332495942759,-0.5185625974944248,26.291875,247.5953949218753,15.73516428010446,-2.677060052486457,8.572809443966113,-5.44875,51.44799843750002,7.17272601160117,-0.58742693929561,-0.6262913225717615
84,-0.89147216796875,0.004357762879133222,0.06601335379401066,0.7518405273038467,-0.8198805710842687,0.33614013671875,0.002656933134794235,0.051545447275139974,0.09702082792404147,-1.5010020576074858,0.5406689453125,0.012149843192100525,0.11022632712787143,-0.08031912354353228,-1.2648634050244727,18.40625,78.4392578125,8.85659403001515,0.10957073684831503,-1.3348654003685814,85.54625,518.4666109375,22.769861899833735,0.3399430347739665,-1.0132985827963796,19.56,48.170696875,6.940511283399804,-1.0201958887269857,1.1156449728572184
85,-0.58204833984375,0.007615970677137378,0.08726952891552342,-0.379749771712457,-0.1742125908112664,0.39252685546875,0.002123084419965744,0.046076940219221846,0.7405777249282173,-0.8005179430420224,-0.0465283203125,0.03031136415004728,0.17410159146328122,0.3776190912685496,0.0741228534778533,64.38875,789.3084828125003,28.094634413220263,0.03146941554669442,-1.1785233470182814,141.510625,107.640785546875,10.37500773719591,1.448307735722378,5.486301651845032,22.07625,77.56660781250001,8.80719068786977,0.6688311062072803,-0.4575198619722043
86,-0.2383642578125,0.024850397372245796,0.15764008808753502,0.27486839467981566,-1.4247675685625885,0.32302978515625,0.005620004719495772,0.0749666907332568,0.9463784011891274,-0.7053280946043685,-0.81786865234375,0.05186356603503229,0.2277357372812451,-0.2394090030948359,-1.4431219467196819,36.4675,1371.3874593749997,37.03224891057792,0.00426374757054188,-1.707681816345645,190.0125,1108.9804687500005,33.30135836193473,-0.8699759771931032,-0.5318975341157213,30.2325,111.06984999999992,10.538968165812054,-0.8321244459646155,-0.6401105702391989
87,0.0062158203125,0.0021675222158432012,0.04655665597788571,-0.17374716011885571,-1.314558543498238,0.6556689453125,0.005673334336280823,0.0753215396568659,-0.8369071215038415,-0.6749045914683833,-1.49956298828125,0.01635352050662041,0.12788088405473436,0.04188985157809734,-0.42219561208305434,1.985625,153.21717617187497,12.378092590212555,-1.4011594434083674,0.6043471140446348,30.363125,1506.3087261718754,38.81119331033092,0.7772185023213538,-0.5750026549550307,-3.151875,108.89134804687501,10.435101726714263,-0.12053511556565466,-1.518582426242229
88,0.0419970703125,0.0004722273111343382,0.021730791774216104,0.8952611235616569,-0.24883094226471503,0.45494873046875,0.02113519961237907,0.14537950203649438,0.01495848192725022,-1.3231465561589837,-1.359384765625,0.12298130502700808,0.35068690455591306,0.8365541147443835,-0.5250014683967379,-47.845625,1536.252535546875,39.19505753978268,-0.4296188886911821,-1.3083442204224511,-189.29625,11230.863642187505,105.97576912760532,-0.14816976872750445,-1.3685237373346948,-41.869375,65.375163671875,8.08549093573637,0.12284149480458707,-1.3298628248846411
89,0.0253173828125,0.09482871353626247,0.3079427114517609,-0.3548573928999449,-1.1395371146596107,0.14114013671875,0.014537254446744925,0.12057053722508217,-0.5908073921793121,-0.8969988878299322,0.563759765625,0.673081524038315,0.8204154581907358,0.0615487656903356,-1.6477023410839768,-69.011875,4209.005601171873,64.8768495009728,1.2402365427043238,0.45710929287645374,-323.34,5788.5940875,76.08281072292216,0.9161016615244277,-0.8000341204052539,-44.914375,97.40864492187502,9.86958180075909,0.3454171732401776,-0.13009131154861864
90,-0.86602294921875,0.0040205834567546865,0.06340807091179076,0.15575553642785903,-1.4571105077967401,0.34743896484375,0.032955205315351496,0.1815356860657196,-0.6099023796108539,-0.9539895477912257,0.914541015625,0.1753715228080749,0.41877383252547534,1.0371328297500966,-0.493204377808552,-24.328125,1129.059091796875,33.60147454795511,0.9786044810779413,1.8237791264608187,9.15375,2039.7519078124992,45.16361265236096,-1.9943093803838179,3.85650165222022,-4.725625,204.7338199218749,14.308522632399017,-0.4101822313609919,-0.8548249686966383
91,-0.8636181640625,0.0007982966661453247,0.028254144229569664,0.4198700781976962,-1.1301154574356596,0.3338427734375,0.0015251781702041627,0.039053529548610105,1.6241339172694653,2.081177336906716,0.67134521484375,0.004656971758604051,0.06824200875270343,-1.1233037756589341,0.5176884094253325,19.83,25.597271874999986,5.059374652563298,-0.04556422751595971,-0.6271604455042636,53.268125,829.3193199218753,28.79790478354068,0.37323292936010677,-1.0495260736931287,8.986875,41.05346054687502,6.407297444857311,-0.4061227840584674,-1.5544922146630837
92,-0.68943359375,0.017238773918151856,0.1312965114469987,0.28560805726791605,-0.9728970185503316,0.34105224609375,0.00232313558459282,0.04819891684045213,0.06403566436399935,-0.8685217497146467,0.28367919921875,0.029507610052824033,0.1717777926648961,-0.4106362058210015,-0.9792213322160088,25.354375,115.25226992187496,10.735560997072996,-1.050804711131478,-0.4587248717107344,146.01375,579.5103578124995,24.073021368588105,-0.6730402875491962,-0.6695038825852335,14.378125,74.86784179687497,8.652620516171675,-0.04402586984020229,-1.462397449848055
93,-0.3870361328125,0.0028197497129440314,0.05310131554814844,-0.2724998424084047,-1.5379576697470168,0.3382421875,0.0025313798427581786,0.050312819864903005,0.5442853439189125,-0.14303144751970276,-0.42061767578125,0.13130698248744013,0.362363053424932,-0.7147007997324428,-1.1410963833917924,49.301875,825.3906292968745,28.72961241118429,0.4830030005769268,-1.0652232614089907,198.395,1325.06881875,36.40149473235955,0.802845542631011,-0.469660300269799,23.35375,136.28634531249995,11.67417428825268,0.45096037694656804,-0.9311955061130681
94,-0.12339111328125,0.021415289753675456,0.14633963835432784,0.11641226822422757,-1.6148424989056154,0.68556396484375,0.00991706520915032,0.09958446268946938,0.09137808821455255,-0.8270063599626658,-1.41731689453125,0.053375810450315475,0.23103205502768545,-0.30188334286851337,-1.5276418539949166,7.54125,152.3032203125,12.341119086715759,-0.7449607234390331,-0.6131686576401383,101.800625,2303.316929296874,47.99288415272491,-0.13965824102964883,-0.8457716337530976,21.485,370.19719687500003,19.240509267558384,-0.8445912864431235,-0.6608134997705646
95,0.10221435546875,0.0010293639361858371,0.03208370203367805,0.05570672477135024,-0.942429043093659,0.6000732421875,0.006792795062065125,0.08241841458111848,-0.5844063600884478,-0.374793065082875,-1.524599609375,0.08290169253349307,0.28792654016865665,0.6846343052802646,-1.0158118434609975,-24.126875,402.16519179687486,20.054056741638956,-0.34726270688375066,-0.9496205262974668,-134.27625,10169.753060937495,100.84519354405293,-0.1431738153102347,-1.3717165993579885,-24.479375,175.32851992187506,13.241167619280223,-0.8427857174261909,-0.5499388027483101
96,0.08350341796875,0.09493183547854424,0.30811010285049767,-0.7189562604821029,-0.5548825525176238,0.153701171875,0.02464146890640259,0.15697601379319898,-0.10627729918063805,-1.1826792705600755,0.20483642578125,0.7142948299586771,0.8451596476161631,0.5051554150519862,-1.2186779979748705,-53.3025,1332.3056031250005,36.50076167869652,0.8017170031173865,-1.0034499782271002,-333.6075,2232.3218031250003,47.247452874467214,1.3595468014300485,1.3583893129620472,-55.355625,236.704038671875,15.3851889384523,1.119904254556392,0.17303729095209475
97,-0.84668701171875,0.0222652166545391,0.14921533652590507,1.8649883831435272,2.3424293692823372,0.2644091796875,0.034584255194664,0.1859684252626343,-0.2405668926793825,-1.6048477395281575,0.9810205078125,0.029644137167930608,0.17217472859839392,0.1445063743847646,-1.5780365516347616,-29.53125,570.2083984375,23.879036798780223,-0.5386406910235029,-1.1954266290869926,-54.66625,3912.2749390625013,62.54818094127519,-0.9088357606526656,-0.5450947768649415,-8.691875,212.20580117187498,14.567285305501331,-0.7410686537584195,-0.659848794184513
98,-0.8636962890625,0.0012083834409713748,0.03476181009342544,-0.4167102545645224,-0.7445860973803717,0.3005517578125,0.0009383414030075066,0.03063235875683599,0.04332249712243631,-0.8672980836623929,0.7371923828125,0.007619864249229434,0.08729183380608654,-0.5895568855160047,-0.4755913733632551,17.080625,118.67142929687503,10.893641691228652,0.2520240664023376,-1.729469482735528,72.133125,1340.5691136718751,36.613783110624816,0.09163060724034845,-1.1501436417454922,6.979375,52.35476992187498,7.235659605169039,0.5584524544474969,-1.241649041920978
99,-0.69453125,0.006488915681838987,0.0805538061288167,0.6032749207462104,-0.8517526354169753,0.2680908203125,0.000986323952674866,0.031405794890033686,0.21931691999968778,-0.8660353495157831,0.2821875,0.022843558454513534,0.15114085633776703,0.5230386482518351,-1.4332510160439325,25.46625,70.46057968749999,8.394080038187626,-0.2044042768884512,-1.4973176642224475,151.32625,167.6862953125,12.94937432127514,0.21630421150544035,-0.7633150479508255,17.930625,23.841944921874994,4.88282140999187,0.5207300967982973,0.23037520659302047
100,-0.3073779296875,0.008394235348701477,0.09162005975058889,-1.057369348650286,-0.006854570838159546,0.304248046875,0.004156094789505005,0.06446778101893227,0.4756104063519503,-0.6797045219721478,-0.486494140625,0.21202330932617186,0.46045988894383827,-0.05812768213586124,-1.583454500413488,61.811875,2669.492851171874,51.667135116743935,0.3134896539828681,-1.1492186363822168,219.83625,2585.9495921875014,50.852232912503474,0.6287504261878146,-0.9755441528185234,33.8025,102.314275,10.115051902981023,0.616933742421271,-1.065822373065607
101,0.17402099609375,0.022856819981336585,0.15118472138856023,-1.158441872911865,0.1114483365312271,0.71592529296875,0.044420993632078194,0.21076288485423186,0.3991076166632516,-1.33404617459421,-1.57133056640625,0.03576099163889884,0.18910576839139212,0.9391678699236558,-0.5226573604612303,-8.9675,452.54441249999974,21.273091277480095,-0.3799270469467989,-1.284536672789847,93.215625,4649.182060546875,68.18491079811481,0.051601696393824205,-1.6303132549490083,5.395625,955.1646917968749,30.905738816551125,0.4280811401483251,-1.2257692757915095
102,0.2725830078125,0.007374271750450134,0.08587358004910553,-0.17408118488736501,-1.3956281184902872,0.60364013671875,0.004075904482603074,0.06384281073545457,-0.548555432773768,-0.06235241324883489,-1.4376416015625,0.09759128472805027,0.312396038272015,0.7220056382601138,-0.34577093807346104,-29.175625,1021.6978667968746,31.964008928744757,-0.5151898382178393,-1.307101646542335,-193.439375,14718.899566796874,121.3214719940245,-0.16790914667118823,-1.2583595300441384,-23.055,514.624396875,22.685334400775318,-0.32100363601361,-1.0934970874052754
103,0.00649658203125,0.18716992365717897,0.43263139467354766,-0.41275731441823243,-1.3797539508105439,0.16292724609375,0.05434434220194813,0.2331187298394278,-0.63550856377523,-0.8992898142538888,0.59994140625,0.8361007184028627,0.9143854320814953,0.110114037650328,-1.5127366523717534,-42.87125,2238.5388921875,47.313199978309434,2.0286840704286337,2.9458840349117077,-321.2925,12647.678271875004,112.46189697793206,0.6069225159430924,-1.0241312894317747,-45.68625,77.9012484375,8.826168389369194,1.4091853163405423,3.239240290596168
104,-0.8822607421875,0.0039272423028945905,0.06266771340087805,1.8483795355871535,3.6776658249000205,0.33667724609375,0.062443879193067556,0.24988773317845667,-0.7732308499037179,-0.9682843560652472,0.7176220703125,0.03700311753749845,0.19236194409887433,0.7541232054378825,-1.0623130672118113,-21.16875,2328.066601562501,48.25004250321963,0.45998687308214325,0.18777633643340685,-10.881875,1582.662491796877,39.78269085666374,-1.474206191239936,0.8828597448348185,0.015,31.536728124999986,5.615757128384381,-0.15778782324596374,-1.2225860917718536
105,-0.93009521484375,0.0005398238360881807,0.023234109324185008,0.5355143819029706,-0.9965229410166203,0.3382373046875,0.0006481792688369754,0.025459365051724588,-0.3337286169186883,-0.9978956332725799,0.6153125,0.003132017707824707,0.05596443252481621,0.0422073709083884,-0.42423103396231765,8.7675,162.5522718750001,12.74959889074947,0.30829846171983794,-1.2748471536268915,59.449375,958.5517730468752,30.960487286973944,0.43154418043474496,-0.7257342700681817,8.38625,84.41495156249998,9.187760965681463,0.27012258116140586,-0.6296510117918177
106,-0.66265380859375,0.012323325699567794,0.11101047562986024,-0.539461847972615,-0.7772416248607552,0.32085205078125,0.0031750169932842254,0.0563472891387352,0.04521630536270849,-1.079821160067832,0.18682861328125,0.09160267993807793,0.30265934635837355,0.3551069937882701,-0.6104062476985956,17.26125,186.57987343749994,13.659424345026402,0.06670395169787324,-1.761561137863049,168.643125,416.0800230468748,20.39803968637366,-0.494497902537725,-0.9134373314449249,11.449375,76.09333554687498,8.723149405282188,0.025724459975962937,-0.9345861730265765
107,-0.359501953125,0.008893435573577874,0.09430501351242082,-0.36540291099145683,-0.8913488436048698,0.34529296875,0.009516806459426881,0.09755412066861595,-0.2274504049901768,-1.3956325278026138,-0.443564453125,0.07433660593032841,0.27264740220718847,-0.8354278939261581,-0.46649338535057927,49.686875,395.60746054687456,19.889883371877136,-0.3118105509266564,-0.6619259940771358,185.85375,1832.1903296875005,42.80409244088117,0.2269521730694601,-1.688717166208127,39.8325,85.74405312499998,9.25980848209076,0.5544999399552352,-0.8790302221841628
108,0.1340771484375,0.04568328664302824,0.2137364887964342,-0.16380766071167832,-1.3301025830074231,0.76191650390625,0.049739998215436926,0.22302465831256624,0.263721454618779,-1.2929578303039257,-1.45620849609375,0.046561637705564485,0.2157814582061315,-0.056384458339187926,-1.5507118885633742,-6.320625,281.5392699218751,16.779131977604653,0.31143559338739046,-0.9703909497143179,89.9275,5320.702321874999,72.94314444740506,-0.3894548589639937,-1.225522179672588,23.723125,2764.638848046876,52.57983309261143,-0.7303973131350429,-1.1874753424162001
109,0.05264404296875,0.0014210780322551728,0.03769718865187659,0.2249240366803063,-1.4174624242573082,0.60315673828125,0.009021086043119431,0.09497939799303548,-0.6445519037598654,-1.1741806396052292,-1.4088818359375,0.014586015439033508,0.12077257734698514,1.285397777329052,0.670533508517301,-29.775,780.918984375,27.94492770387857,-0.742905535095338,-0.7451030342300604,-120.63875,4390.422389062498,66.26026251881665,-0.4266135610353852,-1.1741721882699638,-20.58375,270.76892343749995,16.455057685632706,-0.6567602220035232,-0.9392689518858286
110,0.04443359375,0.061231589317321776,0.24745017542390585,-0.5594818842457993,0.8308262368490742,0.3215185546875,0.07230960347652433,0.2689044504587537,-0.1658910440340344,-1.3766303648805074,-0.02575439453125,0.8296711021602156,0.9108628338889536,0.9643562269190668,-0.3184590973244328,-79.52,2207.231240625,46.98117964275695,0.7849330872988487,-0.5391091899321858,-341.0725,1879.8634937499996,43.35739260783563,0.22519800304816945,-0.8229478847383005,-77.32625,210.73004531250004,14.516543848743751,0.09131140560380867,-1.1110766427466385
111,-0.7927783203125,0.015227821564674376,0.12340105981989934,0.6095892572562431,-0.9294728379945179,0.23898681640625,0.02177911745905876,0.1475774964520633,0.16297715710118407,-1.5116172626788806,0.9708740234375,0.1693088334798812,0.4114715463794322,0.743154226744957,-0.5609503849137716,10.1025,3422.8236343749986,58.504902652470065,0.06125953817378319,-1.0679433991692742,-50.874375,5623.229648046873,74.9881967248638,-0.9716314138833723,-0.27085315524791254,-21.09,330.40635312499995,18.177083185291306,0.08775965610881203,-0.655159752798971
112,-0.84171142578125,0.0004131130874156951,0.020325183576432836,-0.8665851201259741,1.511397974535396,0.36454833984375,0.0007806237876415256,0.027939645445880762,0.927244707360551,0.39730574060942425,0.56540771484375,0.0004551793277263642,0.021334932100345767,0.8371076605104001,0.44348555145659274,-5.569375,59.98858554687496,7.74522985758815,-0.3376696817424046,-0.5897624188430703,31.925,96.94234375000002,9.845930314094247,0.7676872415680651,0.39924716657321424,0.2325,46.28797499999997,6.803526659020303,-0.4872443844447114,-0.9767536534336037
113,-0.79182373046875,0.01034332358241081,0.10170213165126289,1.49981154685627,1.7864735990299057,0.3285009765625,0.013906256461143488,0.11792479154589797,-0.5341891165340603,-0.7005111126028081,0.54602783203125,0.015454005545377734,0.12431414056887388,-1.0350390836796262,0.2682223451383501,62.195625,1833.6740355468748,42.8214202887629,0.6794518952442942,-1.1906061240190606,158.77625,4873.707279687499,69.81194224262421,0.22913528461698948,-1.4112493481119206,-1.734375,275.048623046875,16.584589927003773,-1.1026079816840777,-0.010126208971748873
114,-0.28494873046875,0.0056781964004039755,0.07535380813471855,-1.0240985539734517,0.12202841013710186,0.28694091796875,0.012448314064741133,0.11157201290978457,0.1880029924939973,-0.8815904069986247,-0.50304443359375,0.09771062070727363,0.31258698102651944,0.9589284532925676,-0.297093389829552,18.3,2363.4843750000005,48.615680340811856,0.07269306021973211,-1.710892474945182,224.89,1707.1467281249998,41.31763216987392,0.10135002040001886,-1.440470345606027,17.07375,164.66471718750014,12.83217507624877,-0.183660371821072,-0.7049447382471348
115,0.03728759765625,0.012506480044126515,0.11183237475850415,-0.82039620776806,-0.8456178427735348,0.65692138671875,0.009544564932584763,0.09769628924675063,0.663832456973626,-0.9980049491125187,-1.21466796875,0.03825689682960512,0.1955937034508144,0.994996185094306,0.05595698330324783,-18.963125,363.71805429687555,19.07139361181756,-0.35414716446044575,-1.466588087814219,118.960625,1764.2030980468742,42.00241776430107,-0.043980223229180965,-1.2317662234415305,16.011875,109.31130429687501,10.455204651123525,-0.3722152340547365,-0.9136972993839168
116,0.31772705078125,0.004928746336698529,0.0702050307079096,-0.21550424405221838,-1.4278179692195234,0.79214599609375,0.0012197633445262918,0.03492511051559167,-0.17833524838852996,-0.4707714000164831,-1.539599609375,0.0038618659973144506,0.06214391359831187,-0.3589388710120914,-1.0652431407123948,-0.74,27.363493749999993,5.231012688763046,-0.3709933912574467,-1.074023774461133,-65.209375,5588.566904296874,74.75671812149643,-0.3793010975541245,-0.9340676635238365,-15.444375,677.239913671875,26.023833569861974,-0.3992004812179419,-1.1009100970189458
117,0.28201904296875,0.008332298249006274,0.09128142335111933,0.6209648593306649,-0.12161015643492012,0.32359130859375,0.06466078073382381,0.2542848417303395,-0.27219062148466056,-0.7938193583511453,-0.33712646484375,0.5920100362956522,0.7694218844662869,0.24016084092435366,-0.8264337917735967,-29.978125,185.7085449218749,13.627492246259944,0.8793852609843789,0.0046477981576251715,-405.595,3790.2814437499965,61.565261663944845,0.8780562258663329,0.2542857577624522,-117.200625,278.61806992187513,16.691856395316705,1.1782383142045085,1.643682379198668
118,-0.694091796875,0.06862370371818542,0.261961263774218,1.1639351440748449,0.2863583638057925,0.007998046875,0.045922894620895424,0.21429627766458154,0.2470666564948825,-1.5291893422999523,1.00255615234375,0.17704284245371815,0.42076459268065575,0.07884786548961804,-1.5886305682222925,2.964375,538.9145511718754,23.214533188756462,0.9104135725723366,-0.218794518999871,-79.325625,14290.585569921883,119.54323724043064,-1.1184572776846806,-0.270693617259937,-19.0925,1629.8437093749992,40.37132285886851,-1.1591034320508502,0.15005911505691616
119,-0.870693359375,0.001426348114013673,0.03776702416147813,-0.23362755237295021,-1.448881970232316,0.19583251953125,0.00032872158885002123,0.018130680871109646,1.0904904341458037,0.9093592422228083,0.7082763671875,0.003202667832374572,0.056592118111752736,0.018570726268394545,-0.9512091111796881,6.6125,16.10390625,4.012967262512865,-0.0008151514186217193,-1.3072577738000497,23.084375,544.4541699218752,23.33354173549046,0.04852350195367357,-0.6231414167242382,13.49375,38.91816406250001,6.238442438822371,1.0251052904149258,-0.3993325437229114
120,-0.65728271484375,0.03362855297923087,0.18338089589494014,1.2980756041279804,0.6305947962222485,0.1142578125,0.004630218744277954,0.06804571069713325,0.14558451809172207,-1.311364696810458,0.6290625,0.02645249428749084,0.1626422278729938,-1.3526641065018967,1.1843484261000965,11.52375,73.2422484375,8.558168521214103,-0.6270745776035761,0.8689713965842816,216.368125,8971.490069921878,94.7179500935376,-0.04092849215866187,-1.5116203770744543,35.64,128.546884375,11.337851841288101,0.43351865132870837,-0.9238726605454683
121,-0.21063720703125,0.0006700180232524872,0.025884706358243418,1.0433665353590134,0.8680537497967049,0.342626953125,0.02029066801071167,0.14244531586090034,0.3425097386375276,-1.3340054481300283,-0.58412109375,0.14684307613372805,0.3832010909871318,0.15406579097911977,-1.0810072339827894,-1.63625,749.6792484374995,27.380271153469234,0.2488931388601349,-0.7859940448278793,250.663125,2067.4453824218745,45.469169581397395,0.056469944975203995,-1.326191235783288,56.2525,48.574524999999994,6.969542667923053,-0.5080279388641157,-0.8055090965827958
122,0.24281494140625,0.020621142691373842,0.14360063611061702,-1.2854607896515517,0.2594420292266948,0.81084228515625,0.031951046341657616,0.17874855619460991,0.5680954670439538,-0.8409405499405636,-1.29698486328125,0.026066906899213795,0.1614524911520841,0.033861144935969575,-1.1634795437071352,-8.758125,774.8175511718754,27.83554474358056,-0.09766627801072274,-1.324551531580167,99.806875,2468.189616796875,49.68087777804328,-0.21459235982198457,-1.2128320650930038,34.718125,921.1358199218746,30.350219437787835,0.3582638973684149,-1.1770441868402108
123,0.4401123046875,0.002000039219856262,0.044721798039169466,-1.8285370615847176,3.187231545085246,0.80978515625,0.01344508204460144,0.11595293029760584,0.01236598229825888,-0.49137326732238407,-1.5660986328125,0.0320054550409317,0.17890068485316565,1.5338802058443133,1.2410125709641635,6.715,171.53760312499998,13.097236469003679,-1.0711666990588813,-0.32533805201216515,-136.665,12836.714337500003,113.2992247877275,-0.4281829583812303,-1.2324257659709483,-29.32,644.1266625000001,25.37965055906011,-0.5810571987403056,-0.5727642909237574
124,0.0945458984375,0.00922338798046112,0.09603847135633262,-0.41332171923819655,0.23852898487318885,0.27224365234375,0.023769256943464274,0.15417281518952775,0.5524023727187821,-1.1907861456282474,-0.04658447265625,0.4547006555736065,0.6743149528029216,0.6016246962520183,-0.6517034152514056,-18.071875,43.30526367187502,6.580673496829562,-0.31117649630896727,-0.8816566946598456,-370.286875,462.0221167968749,21.494699737304426,0.5219656954225954,-0.2201612498246024,-63.311875,304.5236324218749,17.450605503015503,0.36932037543837015,-1.498823216879876
125,-0.7599267578125,0.04058622982501982,0.20146024378278662,1.5383231958068964,1.3837464298631375,0.13569580078125,0.016634494894742974,0.12897478394920062,0.08331943296936613,-1.363783480436014,1.00688232421875,0.24930292689204214,0.4993024403025106,0.20268024744273277,-1.6572393970411907,-8.22875,621.4678296874998,24.929256500896688,0.866136819914791,-0.285885286910474,-72.575,11905.085156249994,109.11042643235335,-1.0540788720107768,-0.5294233189988158,-17.084375,420.252685546875,20.500065501038648,-0.6288073593436263,-0.32820649536577307
126,-0.89663330078125,0.00027868019938468927,0.016693717362669384,-0.6722746064128338,-0.5425061343935584,0.29827392578125,0.0004786441981792447,0.021877938618143272,0.9484775572596581,0.17463807413712162,0.67562255859375,0.001715509146451952,0.041418705272520916,-1.0776272142595742,0.6730788375150438,5.56625,161.85764218749995,12.722328489215327,0.026036484358093404,-1.1930077911182198,58.125,2430.01703125,49.295202923306846,0.6379730874511704,-0.5810468772890638,9.30625,33.7178515625,5.806707463141225,0.15208243721546824,-1.0702292255772146
127,-0.70606689453125,0.005168035477399829,0.07188904977393866,0.009274884734085198,-0.11588064695511369,0.25363525390625,0.0077139269053935955,0.08782896393214254,-0.3552913505750341,-1.3229226923023552,0.05877197265625,0.10276472074389467,0.3205693696283141,0.7832066113718414,-0.7927442029916598,6.271875,534.2350292968754,23.113524813339815,0.24852486953933206,-1.621441401237677,181.74125,455.28218906250004,21.337342596080234,-0.19770923039539623,-1.4839288465233873,26.28875,46.786623437499976,6.840074812273619,0.8473641418929547,0.012233636461322028
128,-0.32701416015625,0.014706297367811205,0.12126952365623939,-0.12054578738484902,-1.6134623219928728,0.4750830078125,0.011226825499534602,0.10595671521680257,0.1009790432181943,-1.669681180289334,-0.45037353515625,0.11685787422060971,0.34184481014139984,-0.5577211487984588,-1.2189771616902672,8.134375,353.57385742187506,18.80355970080865,0.5711329911348866,-0.3066698974531272,173.118125,380.51522617187516,19.506799485612067,-0.1269902497852366,-1.0749422926474534,49.37125,583.3409234374999,24.15245170655559,-0.1262080080525303,-0.9772614444601824
129,-0.21698486328125,0.02476906639933587,0.15738191255457493,-0.012944347213543657,-1.157383550305852,0.74791259765625,0.0026605765521526335,0.051580776963444756,-1.0796870030488406,0.7602016934229501,-1.347265625,0.014410637617111206,0.12004431522196796,0.15659612820223437,-0.8175380607534777,7.90875,66.36581406249996,8.146521592833347,-0.5534998967585336,-0.1538372253216158,75.555625,1257.4897574218749,35.46110203338124,-0.09510937715995917,-0.8762898681018001,10.66625,108.69493906249994,10.4256865031757,0.44418252452708523,-1.4327258927740698
130,0.0621337890625,0.0028000003099441528,0.05291502914998869,0.07954214093622441,-1.2584179230851567,0.733466796875,0.0021574867725372305,0.04644875426249051,-0.29287151501892256,-0.8673962046325405,-1.4221728515625,0.014665877318382264,0.12110275520557848,1.6965613155052557,2.0880825879257072,4.334375,59.90034179687501,7.7395311096264106,-1.6113808903695415,3.0348289689172656,-122.044375,9124.956116796875,95.52463617725469,-0.4569656983462729,-1.0181526460754438,-14.41,477.28854062499994,21.846934353016213,-0.33465369154352353,-1.1159885296347534
131,-0.0330126953125,0.019963306879997256,0.14129156691040431,-0.008079871083808744,-0.490712142866089,0.29703369140625,0.03506198689341546,0.18724846299346615,-0.6083035529584627,-0.49885158918015016,0.01931640625,0.5341851643085481,0.730879719453583,0.6701473604199404,-0.7466829419963821,-35.29125,45.2193921875,6.724536577898881,0.1321244510372835,-0.7689258957497564,-372.835625,1104.6350511718745,33.236050474926685,0.6834503161280824,-0.16048851064517944,-70.479375,75.07047304687501,8.664321845757751,-0.19615283900494965,-0.8141070909255292
132,-0.6719970703125,0.04217143595218659,0.20535685026846948,0.8058313706293656,0.08789145395924569,0.07445068359375,0.013608633726835245,0.11665604882231888,0.1135350401342555,-0.830500130760992,1.01888916015625,0.1568862863242626,0.39608873541703077,0.10054636581201472,-1.64004684177738,7.224375,620.7492261718749,24.914839477144437,0.42837131409980905,-0.8634944081041325,-39.729375,11536.651410546878,107.40880508853489,-0.9673243190144503,-0.7142745258076739,-21.061875,681.4337105468746,26.104285290865075,-0.6520447970341987,-0.7326175311582399
133,-0.86904541015625,0.0009148775279521945,0.030246942456258193,-0.4589814646960703,-0.13500324887465798,0.29404541015625,0.00040119301676750193,0.020029803213399325,0.5412536190228534,-0.29114014748573736,0.6530078125,0.0019948698043823236,0.04466396539025978,0.3908947897883882,-1.173129955078765,3.2425,72.29970937499999,8.502923578099475,-1.3294149023625845,1.1174363397455762,28.083125,124.03937929687496,11.1372967679269,0.14180769129977497,-1.1517278421438835,6.689375,13.150504296875,3.62636240561737,0.6634494803139118,-0.9672895117790836
134,-0.736484375,0.006445967578887942,0.08028678333877838,0.08181825818198873,-1.5586411425541282,0.225380859375,0.0017898174762725819,0.04230623448467828,-0.30558082676415477,-1.1587409308810235,0.5465283203125,0.03544515631198883,0.1882688405233028,-0.7725292300125373,-0.5892399183978312,11.910625,4.675098046874997,2.1621975041320805,0.07366166721565696,-1.144636700736357,145.75125,2961.0285921874984,54.41533416407087,-0.44273850499816153,-1.255431398787172,23.933125,50.99744179687503,7.1412493162523765,0.20472168546689465,-1.7291814320396857
135,-0.4151904296875,0.03575572702884675,0.18909184812901575,0.3366594639056329,-1.3371983393645013,0.34651123046875,0.005823534363508227,0.07631208530441444,-0.3837465423973316,-0.675306400580832,-0.238388671875,0.10713142910003662,0.32730937826471856,-1.137542737043338,0.2546528206025491,21.08,879.262271875,29.65235693625382,0.10593952326370429,-1.3297257386145624,244.995625,2240.7964261718753,47.337051304151544,0.8981473754571241,-0.46506469470744083,49.01875,201.7062890625001,14.202333930115152,0.011113076429414838,-1.7623959784337124
136,-0.0531298828125,0.008514455294609065,0.09227380611316012,0.2078600092704404,-1.750288223582692,0.6860595703125,0.01771479427814484,0.13309693564520875,0.5039081322221513,-0.8492614095683195,-1.278037109375,0.03264803137779235,0.18068766249468265,-0.47675118770463215,-1.1727127941399107,6.60625,244.40792968750011,15.633551409948415,0.20633731146354198,-0.5642421748423976,126.780625,2485.4241011718736,49.8540279332761,0.762336075437837,0.23154409621350203,13.658125,732.3138636718752,27.061298262867492,-0.5876981093476749,-0.9016201548803995
137,0.1740673828125,0.003057570433616638,0.05529530209354713,-0.6555776013119355,-0.7814877528754121,0.66971435546875,0.006159940212965009,0.07848528660178931,-0.5943728460723242,-1.1026658475183935,-1.58744384765625,0.020902903145551686,0.14457836333819693,0.8635824741341692,-0.706829141289425,-6.840625,105.83831054687502,10.287774810272385,0.24024511233005869,-1.0100954075373578,-75.939375,5811.927379296876,76.2359979228768,-0.22663199547251237,-1.2518786085402078,-16.283125,250.62769179687496,15.831225214647,-0.9233628243927882,-0.25339544801089753
138,0.0699658203125,0.03206274888515472,0.1790607407701496,1.5126229317493112,0.7917907904021786,0.3671142578125,0.02544094979763029,0.1595021937078932,-0.9001476154793773,1.3529117391799979,-0.51207763671875,0.18500222379565226,0.43011884845429904,0.30021258862200867,-0.6455099944374108,-37.06625,216.20115781249999,14.703780391875418,-1.044981993986746,-0.13236954331214346,-333.295625,2650.1103011718765,51.479222033475565,0.5856464780326771,-0.9775046671633372,-55.18125,26.90738281249999,5.187232673834863,-0.13270693164932112,-0.7562448725502375
139,-0.58890869140625,0.1380112040698528,0.3714985922851563,1.719556833793547,2.154959271994673,0.0854931640625,0.043952098345756536,0.20964755745239805,-0.6985877431336182,-0.2754884992931359,1.18169921875,0.1632035793304442,0.4039846275917491,0.6679195176351672,-0.5063313586828841,-8.093125,586.5595699218748,24.218991926211025,0.04032142417688869,-1.1124392824438176,-150.473125,20414.422519921874,142.87904856878728,-0.5108409752836017,-1.145357223201795,-21.24875,363.3240609375001,19.06106138014093,-0.686741018865546,-0.5902236603185598
140,-0.86416015625,0.0011115705966949466,0.03334022490468453,0.13719564325382283,-1.2443618496332298,0.32927978515625,0.0006000385940074921,0.024495685212042796,-0.1595039716202504,-0.7242351293215736,0.74962890625,0.00702547249794006,0.08381809171020335,-0.138613144539188,-1.0285629604015394,0.12125,80.48897031250002,8.971564540953825,1.3890350206292201,1.2464366817134174,35.6175,697.4146312499998,26.40860903663803,0.8080313248636061,-0.5124776928764541,9.610625,24.477957421874994,4.947520330617651,0.01925751216809285,-1.3985090918243808
141,-0.7413818359375,0.01866209447383881,0.13660927667562994,1.8630257357908306,2.50831698584551,0.2720947265625,0.004475676417350769,0.06690049639091454,1.0241657503639034,1.0835085922814338,0.58559814453125,0.019999234551191333,0.14141864994119882,-0.8621641968933378,0.324512789021961,15.705625,70.85463242187502,8.417519374606453,0.7012550409390652,0.059655499994020644,183.315,3857.3819468749984,62.10782516619785,0.39874611564827295,-1.0234138716436905,22.029375,68.33745742187499,8.26664729027887,0.07177482435466682,-1.2435204183626916
142,-0.19500732421875,0.004280102699995041,0.0654224938380909,-0.2406929686445741,-0.9298404277093151,0.3399658203125,0.012867406010627747,0.11343458912795402,1.0660111708932842,-0.41267782059850733,-0.5489892578125,0.10957024123668666,0.3310139592776816,0.45827334936365116,-1.1139860353597937,40.495625,1027.0794730468745,32.04808064528786,-0.027614927605402066,-1.5356724866572347,199.56625,1638.4768609375005,40.47810347505798,-0.0762065942890029,-1.1343494966549077,27.316875,32.057129296875,5.661901561920253,-0.20944508617708582,0.5686572741060951
143,-0.3031787109375,0.006817784762382508,0.08256987805720988,1.5120359759286528,1.205285401705102,0.65458740234375,0.003108350867033005,0.05575258619143156,-0.7934535794059963,-0.8188752682698435,-1.36102783203125,0.03942902905344961,0.1985674420781252,0.6882791413855504,0.07075348646116586,5.51,245.24911875,15.660431627193422,-0.7174520239868962,-0.7084674302714724,85.845625,1353.8415980468747,36.79458653181028,0.15015734121718113,-1.200774716480746,6.76,92.924275,9.639723803097265,0.05677029690787663,-0.6188016132895982
144,-0.16006591796875,0.003197218960523605,0.05654395600348109,0.25218315459407215,-0.4339484151513404,0.6024072265625,0.003514885210990904,0.05928646735125061,0.25703665426280775,-1.3464073886963794,-1.44072509765625,0.05332619463801383,0.2309246514298849,0.8571897650960527,0.04907884973428267,-12.04125,152.07470468749995,12.331857308917417,-0.13306310640364438,-1.1105569080733981,-123.77125,7308.335485937499,85.4888032781925,-0.2809182360570222,-1.201661183834184,-20.01625,25.424579687500014,5.042279215543306,-0.585248926119577,0.7303508104940408
145,-0.07103271484375,0.065068711489439,0.2550856944037415,0.20633965164017035,-1.2685561175352669,0.2881982421875,0.026105692887306207,0.16157256229727313,-0.6968454849874413,-0.7316492718264667,0.032841796875,0.6470885771274564,0.8044181606151469,0.6718430571779345,-0.9318537670366762,-52.22125,738.2297984375004,27.170384583908643,-0.5555583420606566,-1.0151102331220732,-329.664375,2740.424894921874,52.34906775599613,0.4725914513212838,-0.37271714741967,-26.516875,193.98108242187493,13.927709159150147,0.11752368906566266,-1.1219835934088989
146,-0.76287841796875,0.036802595108747484,0.19184002478301415,0.6723897903231938,-0.9507622468585533,0.19693603515625,0.016615409106016166,0.12890077232513453,-0.38103900687110065,-1.4154595993809103,0.862099609375,0.12019596066474915,0.3466928909925168,-0.04095825209108097,-1.5764951038371229,0.3125,466.315546875,21.59434062144524,0.45824547121585835,-0.6620428102057248,-23.584375,4838.449326171875,69.55896294635131,-0.8509126235378913,-0.6169340677473509,-16.9925,240.9961156249999,15.524049588461121,-0.634135091107783,-0.9646426865536508
147,-0.9120947265625,0.0011587665319442754,0.03404065998103262,0.03971342086207077,-0.8598132747715233,0.33134521484375,0.0004838963687419888,0.0219976446180492,0.10343263293106646,-1.0326477732190895,0.59419921875,0.003946509027481076,0.06282124662469757,-0.1375380847834585,-1.3167066900667657,6.354375,204.50891054687497,14.300661192646826,-0.7281398938347268,-0.8406941965179247,30.0375,286.02460937499995,16.912262101061465,1.2662076226810108,1.0525149069371071,2.859375,22.392763671875,4.7320992880406685,0.6348356788042042,-0.9554560548439479
