ventana  acc_x__mean  acc_x__var  acc_x__std  acc_x__skew  acc_x__kurtosis  acc_y__mean  acc_y__var  acc_y__std  acc_y__skew  acc_y__kurtosis  acc_z__mean  acc_z__var  acc_z__std  acc_z__skew  acc_z__kurtosis  gyro_x__mean  gyro_x__var  gyro_x__std  gyro_x__skew  gyro_x__kurtosis  gyro_y__mean  gyro_y__var  gyro_y__std  gyro_y__skew  gyro_y__kurtosis  gyro_z__mean  gyro_z__var  gyro_z__std  gyro_z__skew  gyro_z__kurtosis
1  -0,0783251953125  0,006174409842491148  0,07857741305547764  -0,5274292974435768  -1,3441723133745767  0,00691162109375  0,009352371329069133  0,09670765910241615  -0,036047998653131026  -0,8341713783213565  0,57830322265625  0,039297954863309864  0,19823711777391706  -0,21020457518495733  -1,499718302365444  -12,2725  445,8320718750003  21,11473589403856  0,6056758482873595  -1,0808769609243851  -2,213125  1330,7905542968756  36,480002114814575  0,6745474443681387  -0,547936810170917  0,746875  52,844326171875  7,269410304273311  -0,4500348484981019  -1,059612976221162
2  -0,3701806640625  0,003362880492210386  0,057990348267710774  0,2787539281506563  -0,2060250031468116  -0,076572265625  0,003431218290328979  0,058576601901518484  -0,9085390322949909  -0,12709396798599926  0,92896728515625  0,0993388752639294  0,3151807025563738  -0,42354094977649126  -1,3726907579665573  -13,506875  745,184679296875  27,298070981241054  1,0609985641174797  0,4317152383096996  135,875625  334,1194917968753  18,27893574026878  -1,0292035937277897  0,17051185857006423  -8,574375  28,064819921875007  5,297623988343737  -0,013638114105990942  -0,8135187978610321
3  -0,4712451171875  0,0013059158086776732  0,03613745714183101  0,030484569269878754  -1,1401859402005192  -0,173818359375  0,0005137192249298099  0,0226653750229245  -0,7882578699607193  0,031953481164770814  1,2395654296875  0,013160992407798763  0,11472136857533893  -0,8395009116101831  -0,5757891394339101  -20,11  190,55063437500002  13,804007909842706  0,036558832883707426  -1,3760272262282625  90,15875  1058,506439062499  32,53469592700228  -0,27821345307994655  -1,6250274814569912  -5,774375  27,573898046875012  5,251085416071139  -0,3072804835636566  -1,2954494759014974
4  -0,5185986328125  0,0005619911909103395  0,02370635338702137  -0,7894112529448003  -0,41019911637146  -0,17075439453125  0,002308615559339525  0,048048054688400496  -0,4075748306478139  -0,7799365947446981  0,9540185546875  0,0028619113206863407  0,05349683467913163  -0,4751469971731708  -1,503476685710513  -15,63  85,73895937500001  9,259533431820419  -0,20515229834818077  -1,1290971668737146  31,69375  101,69941406250004  10,084612737358833  0,2173835005954668  -1,7295095205344728  -11,099375  19,313523046874995  4,394715354476896  0,4003015818477462  -0,8169355832545495
5  -0,43431884765625  0,0007089203059673305  0,026625557383223558  -0,7091159279361928  -0,399883613225394  -0,191474609375  0,002882754898071288  0,05369129257217867  -1,0055552695743482  -0,6507431015235405  1,0959423828125  0,024765732264518742  0,15737131970126814  0,0518920500038828  -1,0917915163542942  -14,955  14,874459374999999  3,8567420674709374  0,23421528355394144  0,7713734403319799  18,038125  217,8621011718751  14,76015247793447  -0,3864876683618606  -0,2922926930090184  7,47  47,66784999999997  6,904190756345017  0,24097025419138013  -1,5105529033156178
6  -0,83655517578125  0,05728850418925283  0,23935017064805456  0,0818350007784371  -1,5058268214832888  -0,3591796875  0,0010809183120727539  0,03287732215483423  0,7692559684003929  0,1396313884061695  1,53672607421875  0,0073354664504528076  0,0856473376728828  -0,6149734448514944  -0,5297228029988093  48,55375  1299,4753140625  36,048235935514235  -0,32027951299242696  -1,4604350886793482  -100,755625  3481,7368824218747  59,0062444358381  -0,4281022749105442  -1,1857825540004459  -15,294375  151,57869492187504  12,311729972748552  0,5562621115567634  -1,1261230507694164
7  -0,747861328125  0,07725077524185182  0,27794023681693125  0,21200771829578616  -1,0430677905921966  -0,2076416015625  0,003454887270927429  0,05877828911194531  -0,546966027019039  -0,3081063142635263  0,8226318359375  0,07187523186206818  0,2680955647937283  -0,5105718711568007  -0,48792357633535755  33,56875  1651,3290234375008  40,63654787795711  0,5792437732465877  -0,8176742529765004  -190,54125  1099,2397046875  33,154784039222754  1,6560720391952046  1,5680688907294575  18,653125  167,88901367187506  12,957199298917766  -0,7056347279884742  -0,4949529616868191
8  0,07528076171875  0,03551430270075795  0,1884523884188204  -0,4732408520933478  -1,1254706475710423  1,708984375e-05  0,002519880837202072  0,05019841468813604  -0,2004743361506148  -1,0976942463251367  0,49196533203125  0,006687407606840135  0,08177657125876663  0,08002004371893094  -1,1365550694516915  -12,95125  69,22754531249998  8,320309207745826  0,512592845821187  -0,5806906820143611  -72,059375  1498,9512011718755  38,71629115981896  -0,48273783465135467  -1,0572307509565275  11,715  24,05268124999999  4,904353295797519  -1,2098917280652977  0,5417358072789846
9  0,14583251953125  0,015469055241346362  0,12437465674865746  -0,1649889851527031  -1,6676154740723312  -0,085458984375  0,0012135051727294923  0,034835401142078046  1,8457022781392611  5,401134097806256  0,57816162109375  0,0033691768348217007  0,058044610730210784  0,8063580439580028  0,14130606521926925  3,43  402,07033437499996  20,05169155894335  1,4756844899134374  1,703123432026735  36,92875  1204,5019546874998  34,70593543887702  -0,3322875709614155  -1,3138755302391134  -4,85875  63,4688765625  7,966735627752436  -0,6162954472560069  -0,09768865092416634
10  -0,24723388671875  0,015529788798093792  0,12461857324690326  -0,10526143627329784  -1,3942775601516029  -0,01569091796875  0,005897151058912274  0,07679291021254679  0,0017044963116507042  -0,9674729233981005  0,88124267578125  0,028696878260374047  0,1694015296872317  0,004283853543999583  -1,247434919914733  3,949375  663,6932574218755  25,762244805565285  -0,07685055213302738  -0,6389072472030453  136,6575  377,1249593750002  19,419705439964844  -0,5715126757459207  -0,901442482934498  -4,861875  97,19939804687503  9,858975506961919  0,35265622974483035  -1,1137030804305847
11  -0,58827880859375  0,0017171288669109344  0,041438253666279595  -0,3189056013650227  -1,066541635188727  -0,25075439453125  0,018233651036024087  0,13503203707277797  -0,4763591198382108  -1,2474176506316987  1,21707275390625  0,0043345328032970455  0,0658371688584575  0,6699571320720049  -0,64880181219069  -37,55125  126,23807656250008  11,235571928589131  0,07084593685370488  -1,048041302383713  136,1725  515,28461875  22,69988146995486  -0,6266087620560237  -1,2531252687068004  2,85125  62,22068593749999  7,888008997047353  0,4663576602357231  -0,9338610625249637
12  -0,60679931640625  0,004539578408002855  0,06737639355147212  0,8789769479793395  0,5861022352212006  -0,23177734375  0,005421038293838505  0,07362770058774418  -1,2008068657120519  0,2864281355727858  1,132333984375  0,02746258606910709  0,16571839387680262  0,370490814726092  -1,4797320082424765  -37,034375  141,19385742187492  11,88250215324512  -0,20225308370644154  -1,3070160885297433  36,269375  1728,3581792968748  41,57352738578812  0,6327017357444177  -0,9183507447013435  -1,309375  195,89127929687518  13,996116579139915  -0,09818503215435878  -1,2699763784243854
13  -0,4647314453125  0,0007236175775527952  0,0269001408463375  0,3294718931710887  -0,9025728631715837  -0,17896240234375  0,001320478266477584  0,036338385578855645  0,2285437743036693  -1,1033763478866947  1,02987060546875  0,0017709009349346167  0,04208207379555595  0,24216534902740489  -1,146106802313247  -6,620625  160,26548867187486  12,659600652148347  -0,8406364074760873  -0,5411579968583506  4,496875  50,23987304687499  7,0880091031879315  -0,6246054434150546  -0,6803222865167089  -1,5025  89,94405625000003  9,483884027654494  0,4366653771370785  -1,2278804962235643
14  -0,6084130859375  0,02016318061351776  0,1419971148070191  -1,2749883096450827  0,6806954294809895  -0,3899365234375  0,018902590727806097  0,13748669291173635  -1,0419207883759996  -0,07889462451853824  1,439130859375  0,045283528423309356  0,2127992679106518  0,07890137824751452  -0,9324456874266107  9,460625  297,6063792968751  17,25127181679296  0,4369336919839992  -0,4092748788941343  -62,656875  2010,875663671874  44,84278831285889  -0,6792999379855019  -0,41432840881689925  1,17375  174,94660781249993  13,226738366373622  -1,4620841577942731  1,6460199046892976
15  -0,89403076171875  0,04022043630480767  0,20055033359435648  0,6160722088197025  -1,091978158756205  -0,3273876953125  0,02076840636730194  0,14411247818041967  -0,1506729814228972  -0,6291356056509083  1,11263671875  0,09762819828987121  0,31245511404019494  0,3019286862791487  -1,0311006769943016  44,063125  538,3298824218751  23,201937040296336  0,21613653998781002  -0,28947791804046785  -216,52875  202,61487656249975  14,23428524944262  0,589600609498777  -0,17702764481668165  -16,724375  127,26461679687496  11,281162032205502  0,21990459063147622  -0,21480258305768052
16  -0,05885986328125  0,04207533966898921  0,20512274293453958  -0,30158486865002027  -0,8631649852667311  -0,08486328125  0,0024765348434448225  0,04976479522157026  -0,6075195764225269  -0,8043009171134399  0,56347412109375  0,002251920098066329  0,04745440019709794  -0,09992289627681274  -0,5099034242392291  1,16125  204,5638421875001  14,30258166162669  0,06237136526773549  -0,647204511836005  -125,73625  1192,1683265625006  34,52779064119945  -0,6671455754747707  -0,3639500623651122  -6,70625  73,3998046875  8,567368597620858  -0,015204474275832464  -0,9736951954900421
17  0,44867431640625  0,005455201691389086  0,07385933719841443  -0,9838832740267947  -0,15168945571957382  -0,07539306640625  0,001506869429349899  0,03881841611078302  0,21727246915869203  -0,8927617519408826  0,567431640625  0,0019994986057281492  0,04471575344023792  0,2935098095912813  -1,123031453242304  -0,511875  43,703882421874994  6,610891197249807  -0,5867231910570639  -1,0021308986493138  -28,305625  651,160773046875  25,51785204610441  -0,32049988594978734  -1,2339216582184533  -5,7225  12,783696875000006  3,5754296070542355  -1,3664317212790236  2,9621411646931453
18  0,27751708984375  0,02507186686396599  0,15834098289440415  -0,09600227038275962  -1,5186917762181247  -0,06742919921875  0,0009085937678813935  0,030142889176079216  0,004688602098498766  -0,9286454647643474  0,47247314453125  0,02014750525355339  0,14194190802421033  -0,21499338946546892  -1,4496695955225745  2,353125  23,58807617187499  4,856755724954159  -0,43162966660419366  -1,1121721761343304  41,21375  982,1075140624995  31,33859464083384  0,607601694759188  -0,8728488024980559  -9,7  14,493906249999998  3,8070863202717113  0,36308939722282046  -1,0151078528750195
19  -0,18525390625  0,0175346279144287  0,13241838208658457  -0,27159775244135004  -1,4693533378996182  -0,0379150390625  0,001895890831947327  0,04354182853242761  0,05371702214916446  -0,3968687320828024  0,88915283203125  0,10895637566447258  0,3300854066214873  -0,21594983712869192  -1,6051841184751683  -2,4675  592,690740625  24,34524061546733  -1,1362028911123665  -0,2611600169082595  166,073125  610,947269921875  24,71734755029097  0,07382293787843544  -1,0439820328807623  -4,92  111,16500625  10,543481694867213  1,5171149595360611  1,1044524112573217
20  -0,5325390625  0,004992966747283934  0,07066092801035048  -0,5303482700280105  -0,6674681121469348  -0,2039404296875  0,004831642174720764  0,06951001492389973  -0,4177756859133384  -1,1392729232755634  1,31069580078125  0,003978479975461961  0,0630751930275442  0,7780103447731164  -0,5283768175526218  -23,14625  214,02048593749996  14,629439016500255  0,12335206456661525  -1,3328688242261475  147,508125  392,31333242187503  19,806901131218762  -1,0825602872344886  1,1286778289202513  4,60625  96,32535156250006  9,81454795507669  -0,23196062638251227  -1,0448026254534695
21  -0,5241455078125  0,0014077323675155645  0,037519759694267296  -0,05056462793247554  -0,6758421165600592  -0,288740234375  0,005986820316314696  0,07737454566144279  -0,29969263041993  -1,1311641833135986  1,143095703125  0,020465976333618165  0,14305934549556057  -0,014146965363836271  -1,6973884311467797  -36,01375  100,5741078125  10,028664308495923  0,6028383044433004  -1,1453442014672919  41,810625  810,3727699218747  28,46704708820138  0,5322517961374194  -1,3886895298527304  8,70875  49,68736093749999  7,048926225851707  0,41069445621458556  -0,9241151316319538
22  -0,48389892578125  0,0003882949054241178  0,019705199958998585  0,24937843768193713  -0,6706252029226438  -0,1898095703125  0,0005722980737686155  0,023922752219772195  -0,27101414466461177  -1,006356605706477  1,05845458984375  0,0062080672442913045  0,07879128913967143  -0,32886139607601483  -1,6176012596915783  -17,446875  274,2202636718748  16,55959732819234  0,18238894378170464  -1,5337885072309867  7,75875  180,4488296875  13,433124345717195  -0,7922607790594701  -0,4541016682554391  6,015625  26,716201171875  5,16877172758432  0,07046889487336262  -1,0034251328708836
23  -0,5438916015625  0,006737087464332579  0,0820797628184474  -0,10326058940146383  -1,6154286084160103  -0,352265625  0,004365991687774656  0,06607565124745012  1,0690548744319541  0,2516186312906217  1,4013330078125  0,01806771519184113  0,13441620137409452  -0,536573181461712  -1,1799050793140586  31,35125  331,7077953125001  18,21284698536997  -0,4337253467265281  -1,3995068025564776  -85,9925  2291,4697093750015  47,86929819179514  -0,4788161160662132  -1,434012557830988  -7,60875  173,50504843749997  13,172131506992327  0,1529952521020507  -1,2807782977251894
24  -0,635556640625  0,022231890106201174  0,14910362204252844  0,8442197642356476  -0,6872685229984881  -0,3364013671875  0,01773297250270844  0,13316520755328112  0,22572398958119663  -1,3246717748308308  1,1902392578125  0,06754997084140775  0,2599037722723696  -0,3267606873706214  -1,2958954175544402  26,658125  515,0017542968751  22,693650087565796  -1,0851064024680959  0,456825870712946  -195,585  155,717775  12,478692840197645  0,7376188009834452  -0,06613222477705527  -21,423125  42,45061367187497  6,515413545729463  0,33889013456886274  -1,408519656298538
25  -0,0342529296875  0,02706102073192596  0,16450234263355024  0,3186553907060369  -0,9817405155510426  -0,01548583984375  0,016042591637372986  0,12665935274338405  -0,5628767960503528  -0,8337182153074321  0,63828125  0,013745529651641854  0,11724133081657617  0,026118719452256838  -0,895526069769522  8,396875  1178,5356542968748  34,329807082138906  0,7198230356324573  -0,9644053966495285  -126,3325  659,8249125000001  25,687057295455237  -0,13449492937240484  -0,5027510121673044  -17,99125  127,04132968749991  11,271261228784466  -0,5609432344523758  -1,2294589133928162
26  0,47122314453125  0,006363263911008839  0,07977006901719992  -0,9579182598101281  -0,22971416681387913  -0,0445068359375  0,0004630154371261591  0,021517793500407032  0,5879007568190311  -0,5560436588973601  0,4949560546875  0,001973485016822814  0,04442392392419668  0,7793552417962164  -0,28452165801797724  0,44875  21,549482812499992  4,642142050013118  -0,12016417328217992  -0,9012317288841225  -27,8475  747,3548687499997  27,337791950887322  -0,2042545780182613  -1,2581874961592414  -3,096875  3,5311230468749977  1,8791282678079742  -0,6124949446574477  -0,3086905615759399
27  0,319931640625  0,03038212695121765  0,174304695723373  -0,3389455549546088  -1,333933349767351  -0,01732666015625  0,0014561753928661358  0,03815986625849383  0,6686634410794456  -1,2746065139462976  0,461376953125  0,017163192033767694  0,13100836627394333  -0,6550571839618505  -1,3020436281419254  8,598125  61,526191796875  7,843863320894558  -1,0272875627699702  1,3618146474398847  50,944375  1020,5824136718743  31,946555583847758  0,7043929852829628  -0,6083789534263371  -6,64  10,915087500000006  3,303798949694125  0,11067853209230603  -1,182742131147626
28  -0,3173193359375  0,03786426618099216  0,19458742554695604  0,05066397974269671  -1,4992880604687957  -0,07186279296875  0,010198797434568405  0,1009890956220938  -0,32815441433552683  -1,0108227750476146  0,836201171875  0,1209651049137116  0,3478003808418151  -0,2925105947432089  -1,4429906439440725  -14,17125  659,0577046874998  25,672119209124514  0,13151789542224684  -1,2042227467675457  191,1  619,2634375000005  24,88500426963999  -1,0709485192618078  0,19813440678829153  6,9925  99,35681875  9,96778906026808  0,689448827719602  -0,6966341522434285
29  -0,69386962890625  0,0018941785037517556  0,043522161064815656  -0,32318204995627725  -1,0550681077527337  -0,357978515625  0,013607788181304939  0,1166524246696353  0,34120813150999296  -0,9300334034059312  1,32410400390625  0,01025932843089104  0,1012883430158231  0,11340055038166827  -1,250260460098796  -57,570625  576,0120042968748  24,00025008821522  -0,6578876508185014  -0,99803458474844  157,373125  1038,0470667968746  32,218737821287704  -0,2573378545551321  -1,4332531462823777  18,576875  53,09936367187499  7,286931018739987  0,5796004200815709  -0,45072079969579937
30  -0,562236328125  0,007047047233581546  0,08394669280907703  -0,2291900551541944  -1,5076946916641107  -0,3475146484375  0,0012929322481155395  0,035957367090980664  -0,4692687604343443  -0,24822279349106458  1,21680419921875  0,006427002495527266  0,08016858796016846  -0,9272169178153123  -0,1311027064520589  -44,375  29,981328125  5,475520808562415  0,8430612240302329  0,9434083746511104  28,69  2237,2256968750003  47,29932025806502  0,4531702337830758  -1,1551683133785218  23,48875  203,63940468750008  14,270227912948695  -0,5554351981398842  -1,3501280686492363
31  -0,42966552734375  0,0008817042052745816  0,029693504428992237  -0,34341049608736646  -1,4079204476142682  -0,2753955078125  0,0012769114732742318  0,035733898097943806  -0,08581801517105177  -0,6640513096916223  0,9623291015625  0,007277588248252867  0,08530878177686554  0,28285819366857684  -0,8627495724258334  -1,4075  199,61152187500014  14,128394171844164  -1,1083308853349478  0,3592756137899511  -13,1275  111,46233749999999  10,557572519286808  0,4686946100581783  -1,2429808697871116  1,02625  102,64368593749988  10,131322023186307  0,648380323313211  -0,1107990361654081
32  -0,62004638671875  0,009306238049268722  0,09646884496700851  -0,44376473480187184  -1,032631681459893  -0,433779296875  0,002486323261260985  0,049863045046015644  0,047986347232727294  -1,3228229886829312  1,376962890625  0,024246706867218023  0,15571354105285135  -0,003692770591651417  -1,7104690576932258  31,65  384,47046875  19,60791852160754  0,13313393168401919  -0,7254232674040999  -80,060625  1749,0055042968745  41,821113140337076  -0,7070698208534751  -0,6675019239543958  -18,8225  129,45536875000005  11,377845523208691  -0,004829979973827195  -0,8846569676851233
33  -0,675947265625  0,02730401501655579  0,16523926596470886  0,6711888819326961  -1,1177965986579461  -0,46780029296875  0,013111269348859781  0,11450445121854338  0,3881031439681064  -0,6224461069149907  1,2049462890625  0,06435830762386324  0,2536893920207608  -0,18413515386516802  -1,2713109357682673  27,1875  266,74609375  16,332363385315674  0,7177830182010032  -0,871380785865516  -211,9475  283,63239999999985  16,841389491369167  0,30969742193662453  -0,8690223006900295  -42,920625  175,100066796875  13,23253818422131  -1,1792887202039457  0,9599168435739722
34  -0,06201416015625  0,05785774766802788  0,240536374937405  0,16253117616575827  -1,3084779969708078  0,04154541015625  0,006028997963666916  0,07764662235839313  -0,5097763780345672  -0,33188023653905896  0,524599609375  0,038527935886383056  0,19628534302485007  0,319720048754974  -1,280666941163978  10,491875  439,5274730468746  20,96491051845618  0,8389368164321487  -0,5614558495640156  -138,755  1321,7600531249998  36,35601811426823  0,5394663715894452  -1,190065033854138  -23,05625  295,42535156249994  17,187942039770206  -1,293043120757376  0,39665266278828515
35  0,51868408203125  0,005330344980955127  0,07300921161713175  -0,8549847241688897  -0,6154190549127971  -0,07535400390625  0,0006306640803813945  0,02511302610959887  -0,3564538338019284  -0,7715369065373019  0,43082763671875  0,0042500413119792935  0,06519234089967389  0,08666619149953844  -1,4689022780479921  4,704375  54,28264492187496  7,367675679742897  -1,4640952200943755  1,3638810635110161  -15,89625  833,9987671874999  28,879036811976604  -0,3317544586986375  -1,2647332608346702  -8,448125  2,598441796874998  1,611968298967135  0,02320559510662401  -1,390279870422696
36  0,3389599609375  0,026838173604011518  0,16382360514898797  -0,3814256334540948  -1,1583135467059342  -0,01924072265625  0,0009122570693492892  0,030203593649585626  0,503600103166782  -1,244690750956263  0,4489453125  0,0054605868816375745  0,07389578392329006  -0,3414935302911218  -1,4085926654899092  27,0725  197,13591562500002  14,040509806449338  0,29828798772350296  -1,6911340956632968  82,175625  2057,9969292968754  45,36515104457248  0,21344518737701182  -1,5364464141229883  -14,859375  18,916982421875  4,349365749379443  -0,335966596394825  -1,4520169204503954
37  -0,30780029296875  0,06436537429690362  0,25370331944399865  -0,2574977658278325  -1,1260651687916694  0,0360400390625  0,0045940623044967675  0,06777951242445439  0,338494664789359  -0,9604289770298879  0,92003662109375  0,03999356324076652  0,19998390745449124  0,16625042652773325  -1,2532957981809574  12,7925  730,7481156249995  27,032353127780045  0,7557488251012885  -0,7744629667238283  194,149375  293,525304296875  17,132580199633534  -0,2656125105363224  -0,580870519714781  -33,119375  123,10711679687496  11,095364653623376  -0,18313230623510957  -1,1605813805380654
38  -0,820341796875  0,004733821487426754  0,06880277238183614  0,5797011593726944  -1,1096604108697081  -0,09893798828125  0,004205035418272019  0,06484624444231153  0,6400237106307964  0,38902501172321413  1,22473876953125  0,0020257311522960657  0,04500812318122214  -0,15825818608074077  -0,5999469686751855  -58,528125  636,2551074218751  25,22409775238502  -0,16479562835923187  -0,7997405813110348  151,3875  585,577734375  24,198713485947966  -0,21621822666852406  -1,2773241463921294  -10,75375  250,56131406250003  15,829128657715183  0,5965148361705339  -0,8480972056069969
39  -0,67103759765625  0,019508002108335486  0,13967104964285007  0,3256102512776252  -0,9582449052355542  -0,2541357421875  0,0003903923273086546  0,01975834829404155  -0,3002686150114523  -0,5564792821604159  1,19828369140625  0,013336514300107962  0,1154838270066764  -0,3454739854429952  -0,7814708569725046  -81,315  495,5488218749999  22,260925898870422  0,027121286446158775  -1,2454032869892073  3,001875  2341,871676171875  48,39288869422733  0,4646307298672131  -0,8211648445588349  33,67375  85,10309218750002  9,22513372193054  -0,8402716841960178  -0,1747579452560868
40  -0,40237060546875  0,0005821918189525604  0,024128651411808335  -0,1445249089315552  -1,0497387198680892  -0,19980712890625  0,0020542610824108125  0,04532395704713802  -1,1414359027485774  0,06173489718596992  0,96973388671875  0,008983690088987353  0,09478233004620298  0,8682368457964387  -0,21693759898599785  3,495  122,6296625  11,07382781607155  -1,1819954643269122  2,8324799605648217  -6,965  139,30939999999998  11,802940311634215  -0,33091008227528407  -1,2507269443709474  -12,423125  43,817879296875  6,619507481442634  0,8323322913051687  0,4957317459167463
41  -0,56830322265625  0,008476996248960492  0,09207060469531245  -0,4043289546933441  -1,0211445666838916  -0,3078125  0,005142785310745237  0,0717132157328427  0,37614443723520896  -1,1326579965847883  1,4113720703125  0,018894100165367137  0,13745581168276275  -0,12304660654832182  -1,2720042568104026  33,3475  113,20354062499993  10,639715251123967  0,030016197053270948  -1,4023238757864442  -80,93625  1648,9620296875  40,607413481869294  -0,10983722228529262  -1,2468854213536802  -11,24125  37,957267187499994  6,160946939188812  -0,6305800314584119  -0,09966272928273057
42  -0,700537109375  0,02875171780586243  0,16956331503560088  0,7060550304337284  -0,9718028138023187  -0,23993408203125  0,015109371966123577  0,12292018534855688  0,20087113162782425  -1,4863163413440612  1,24917724609375  0,08258375007510182  0,2873738855134576  0,019137422376337157  -1,4997518819915938  41,215  545,4931500000001  23,35579478416438  -0,6328686892376794  -1,0778412646163409  -210,976875  410,4729417968751  20,260131830688444  1,3326861660345242  0,8726326392788022  -10,2875  209,84390624999992  14,485989998961061  0,17134370098172896  -1,5180606520135411
43  0,03987548828125  0,04246346957087518  0,20606666292943937  0,19450209448138736  -0,7646606673690752  0,0227978515625  0,02232709023952485  0,1494225225309921  0,2883421035047674  -1,0507125971810736  0,57509521484375  0,02497776519656181  0,15804355474539863  -0,2968770657385246  -1,2058594929225677  -2,485  573,2914937500002  23,943506296071178  -0,29567300946982505  -0,19707217949756517  -157,673125  611,3175667968751  24,72483704287806  -0,07555831462103656  -0,4134865438294657  9,2175  296,2070687499999  17,210667295314263  0,0006945010331372478  -1,3288709842318114
44  0,5615380859375  0,0036960230112075797  0,06079492586727596  -0,7394908350560969  -0,660582338304327  -0,05115966796875  0,0002860610187053679  0,016913338484916805  -0,11562920826897148  -0,41594783935777624  0,32077880859375  0,0038333429038524642  0,061913996025555196  0,8000981583367656  -0,9055049017142425  1,96  19,68464999999999  4,43673866708419  -0,09858159178147072  -1,0593708130190291  -26,41125  1163,4068890624994  34,10875091618718  -0,36742101591765974  -1,0910730577777312  -3,9825  4,829146874999999  2,197531996354092  1,1806349838749597  1,4650927833554341
45  0,47342529296875  0,0143451552093029  0,11977126203435823  -0,35746800429145364  -0,8646073606264784  -0,0336572265625  0,0014209449529647836  0,03769542350159743  -0,4104074830274517  -0,6228794099767958  0,461025390625  0,0003052824974060058  0,017472335201855697  0,6736732125054066  -0,0355328474299772  14,6275  8,325774999999998  2,8854419072301556  -0,1977900889706085  -0,4319566069005596  60,778125  862,3478417968746  29,365759683632817  0,38331873093338825  -0,7738343218603028  -18,578125  77,059013671875  8,778326359385085  -0,03589373032236461  -0,8315117640787513
46  0,03  0,018363728857040403  0,1355128365028214  0,15944916303299478  -1,2685175818117533  0,0682275390625  0,006608658337593078  0,08129365496515135  -0,42926141305003934  -0,8087913429668405  0,81369140625  0,042475519514083876  0,20609589882887985  0,02439514378984192  -1,606024769804378  -8,876875  244,089332421875  15,623358551280676  -0,4457157324634192  -0,8500936242755808  170,20625  552,9241015625  23,514338212301446  -0,35666613414799114  -1,171639462340066  -31,709375  121,831748046875  11,037741981350852  0,6008666816168383  -1,0704940120767548
47  -0,44922119140625  0,013300123804807662  0,11532616270737382  0,13467081340712078  -0,49944317196912147  -0,1001904296875  0,022070084547996527  0,1485600368470489  0,35778603766306877  -1,188098059723659  1,27979248046875  0,001992210692167284  0,04463418748187631  -1,0528110198845562  2,18667742080558  -53,15875  1489,0842515625  38,58865444094287  0,27730913350462655  -1,1793089968916404  169,678125  633,1904199218748  25,16327522247203  -0,3112632049197434  -0,9425250932580291  2,618125  197,47577304687482  14,052607339809748  -0,9015511483284722  -0,31624905610558285
48  -0,68027099609375  0,0011709104716777807  0,03421856910622916  1,023203712107871  0,6361753436429209  -0,29060546875  0,00036324605941772385  0,019059015174392506  0,8222016719077405  -0,5235724884085453  1,13783447265625  0,0015080455005168916  0,038833561522436895  -0,32954137706339326  -0,8340403910248746  -60,435625  129,97597304687497  11,400700550706302  -0,121580024007258  -0,7859896362444738  86,6525  1143,6783062499999  33,81831317866105  -0,2721067491078381  -0,8759277136887005  13,39125  12,5180953125  3,5380920440966483  0,6453991683999981  -0,2903684220881475
49  -0,5227294921875  0,0034707254171371486  0,0589128629175085  -0,5154507883406598  -1,0687250051953123  -0,27265625  0,0008653128147125242  0,02941619986865272  -0,004385405109215102  -1,7119992560452304  0,986220703125  0,0015785328388214109  0,0397307543198139  -0,31310968718479226  -0,9521407066312073  -19,1075  326,8039125  18,077718675208995  -0,5799913702944941  -1,2473517225715867  2,02375  41,81162343749998  6,4661907981051705  0,5841969021381511  -0,02462881286543217  5,94  104,266009375  10,211072880701616  0,13899210994340908  -1,344491351363641
50  -0,55768798828125  0,0010872164905071258  0,03297296605565119  0,1309501507636757  -1,404772875443674  -0,31889404296875  0,00549682819247246  0,07414059746503572  -0,47765646110223264  -1,0730150577577875  1,2148779296875  0,013192979121208193  0,11486069441374709  -0,08238944546527831  -1,3424343911267849  13,255625  153,93750742187504  12,407155492774121  0,8485620191341274  -0,4413140767014796  -48,364375  1044,7100042968748  32,321974016091204  -0,2382666420218617  -1,381516567397943  -6,45  5,469687500000001  2,3387363040753444  0,5685992974188743  -0,31223572551412193
51  -0,88404052734375  0,039714525288343384  0,19928503528449742  0,6192232906007112  -1,300682548477667  -0,518515625  0,027322976255416867  0,165296631107282  -0,1437414255238669  -1,3797531583030442  1,4118798828125  0,028761331820487977  0,16959166200166792  -0,2134673105605397  -1,127368434457721  36,66875  1630,3743359375  40,37789414936718  0,07943342774319863  -1,5754127873618233  -181,099375  2730,845866796874  52,257495795310305  -0,1124766711952767  -1,5739635926759692  -37,46625  225,8672203124999  15,028879542816886  -0,07654820570280524  -1,4287458396175197
52  -0,26696533203125  0,1459689265429973  0,38205879985022895  -0,17474488675158528  -1,1860842989360258  -0,08129638671875  0,007466608875989914  0,08640954157956118  0,016701388811669212  -0,6926008954413776  0,55364501953125  0,045023630684614166  0,21218772510353695  0,8573903209587757  -0,27153027825985143  38,24  1126,1834156249993  33,558656344153576  -0,3069616424136943  -0,3905415443774589  -202,309375  2634,946669921874  51,33173160844931  0,33878990799499914  -1,246621966351924  -17,18875  82,02757656249997  9,05690767108178  -0,433505280142647  0,7702740849309997
53  0,49748779296875  0,007233215922117238  0,08504831522209737  -0,3791109788355628  -0,6881161461191745  -0,0176318359375  0,0016684193372726447  0,04084628914935413  -0,08134218151770183  -0,3818374083414686  0,35333740234375  0,0008038781344890593  0,02835274474348223  0,06010251687501335  -1,0333541845358212  -1,511875  183,38216367187496  13,541867067427408  0,07380925201631189  -1,0592285213637813  -45,88375  1452,8905484375005  38,1168013930537  -0,7158717579865918  -0,7647806277107128  -12,865625  27,920966796874993  5,2840294091606825  -1,453214260825867  1,404838972568939
54  0,4646044921875  0,016643328642845144  0,12900902543173148  -0,21964857875248894  -1,5486559739676469  0,00847412109375  0,00047723209261894226  0,021845642417171948  0,737095486661343  -0,5794917846497318  0,38999267578125  0,0008400000274181364  0,028982753965386663  -0,4236406829516643  -1,214501882274725  5,78  12,7250375  3,567217052549508  0,04542832991188191  -0,1353615913511912  55,181875  925,5210230468749  30,422377011779915  0,3087027272465853  -0,9540909342679873  -3,085  11,101993750000002  3,3319654485003296  1,69577891977372  2,3258548798477277
55  -0,1369189453125  0,03567424461841583  0,18887626801272794  -0,02597854367881935  -1,1293730344162964  -0,00458984375  0,002399206161499026  0,048981692105306306  -0,19711323273974996  -1,0868694593799693  0,83421875  0,08527706375122068  0,2920223685802522  -0,27495739453361795  -1,2195483818068953  -13,828125  790,693232421875  28,119267992283778  0,1907958818590829  -1,2674336452135098  186,52375  395,6480296875  19,89090318933507  -1,3933888880277263  1,1369046308681128  0,183125  153,42064492187512  12,386308769035072  0,3955198899750155  -1,3943850055145184
56  -0,6672314453125  0,016758080697059637  0,12945300574748983  0,23630829715771026  -1,1085861257656928  -0,285439453125  0,011389283800125114  0,1067205875177096  1,3317144478273821  0,7241934445950085  1,1933203125  0,008314357662200933  0,09118309965229814  0,09824474474302473  -1,3962812945078389  -73,136875  278,95708554687496  16,70200842853562  -0,7220341034368957  -0,7741946964848134  174,8475  167,32354062500002  12,935360088725789  -0,7257061430124732  0,37070847570302456  22,930625  26,72538242187502  5,1696597974987695  -0,27556748765449385  -0,5737761338283613
57  -0,68763671875  0,005010263109207153  0,0707832120577129  -0,0738633627668115  -0,930481761003414  -0,48164794921875  0,0013933706939220445  0,03732788091925451  1,1596132445729097  1,54995336182568  1,12361572265625  0,008619902199506759  0,09284342841314489  -0,31450022820030293  -1,2619676995126552  -63,529375  354,9726917968749  18,840718983013225  -0,00238411431965083  -0,8801282736767106  67,00625  1742,0663671875  41,738068560817474  -0,12907486751041283  -1,5859852005924924  26,466875  52,33120742187496  7,234031201334077  0,37551779250484474  -0,4815227636108741
58  -0,523583984375  0,0007359552383422847  0,027128494951660784  -0,5517748544357138  -0,6910158795196613  -0,3868115234375  0,002082907891273498  0,04563888573654595  -0,07317531641815014  -1,200967165905825  0,90397705078125  0,004471503132581712  0,06686929887909482  0,01584341964466306  -1,3185009337395532  -2,7825  86,55456874999996  9,303470790516835  -0,3009275089959781  -0,9634733023613986  -9,566875  44,90923867187499  6,701435567986533  -0,43936937840591367  -1,0353998728458582  2,8275  48,84563437500002  6,98896518627758  -0,8017987783205028  -0,9163025236581754
59  -0,65747802734375  0,0025836508929729467  0,050829626134499026  -0,4843484203284473  -0,5821334181868645  -0,44563720703125  0,0010670221507549276  0,03266530500018219  0,8395291170140167  0,03499524737600401  1,16826904296875  0,007461145943403243  0,08637792509318132  0,5120009715849194  -0,6815140047917922  37,3875  397,01453125000006  19,9252234931004  0,004055983753047062  -1,1722421534244505  -69,273125  1105,1814574218747  33,24426954261252  0,2657857064024554  -1,2562136031048976  -22,813125  102,56871054687504  10,127621169202323  -0,12519761435880264  -1,2432390723333457
60  -0,74609375  0,009630173444747925  0,0981334471255745  1,2173783941112588  0,33461363795091215  -0,4725439453125  0,014489658379554739  0,12037299688698765  0,4421379412442821  -1,1842675432778214  1,2853271484375  0,017016912102699285  0,13044888693545562  -1,106321879155333  -0,32667128454617655  61,89  567,1148531250002  23,814173366400947  0,6609409350210574  -0,5651078398694462  -200,021875  1287,4280761718755  35,88074798790955  0,4351269519539691  -1,0691532058721476  -43,2075  121,11756875000005  11,00534273659844  0,20269881555260974  -0,8125384734541603
61  -0,06843017578125  0,04223165904879569  0,20550342831397167  -0,07320678154235027  -1,1330634768502954  -0,0634326171875  0,025071301913261426  0,1583391989156868  0,1023992113179973  -1,7449766612667206  0,614326171875  0,038837066984176626  0,1970712231254899  -0,016017460321406652  -1,2614262220327692  10,955  1415,9190687500006  37,62870006723592  -0,2651891941101695  -1,2535637963381892  -192,398125  1245,4448167968749  35,29086024450063  0,6396895515528993  -0,3993171995346527  -8,234375  197,592294921875  14,056752644970139  0,4190814361631758  -1,4521000678272518
62  0,46231689453125  0,005774245709180831  0,07598845773655911  -0,8289258591861391  -0,5700686010167462  -0,07133056640625  0,0006694055259227749  0,02587287239412692  0,3471106075251026  -0,7330442637394787  0,30919677734375  0,0008028667628765107  0,028334903615091243  0,6757820876286373  -0,22511176060039206  -4,45125  236,37684218750016  15,374551771921682  -0,7992948668912028  -0,3859362386778784  -35,856875  1447,0728355468752  38,040410559651896  -0,24534264370666384  -1,1381418788653854  -14,48875  51,541592187499994  7,179247327366567  1,1632826042448288  0,9065509045630877
63  0,53458251953125  0,005972537249326707  0,07728219231703191  -1,2034542800885841  0,8026363882993439  -0,01983642578125  0,00038698241114616395  0,01967186852198245  -0,8825547503834723  0,1689721473968202  0,51994140625  0,007032530164718629  0,0838601822363786  -0,2872011914550571  -1,113739643298651  9,783125  46,193394921875  6,796572292109825  -0,3474244315711116  -1,043355019995191  61,075  552,1084375000003  23,496987838869906  -0,3596382851796554  -0,6472605867017229  -9,55625  6,841289062499998  2,6155857971972547  -1,0140729084724824  0,21912914555545182
64  -0,05178955078125  0,04144539553523062  0,20358142237255003  0,0956503737190244  -1,2342525404752889  -0,04921630859375  0,005190129393339154  0,0720425526570176  -0,2974202935541901  -1,23126712335578  0,69701171875  0,05999549617767335  0,24493978071696185  0,6743604311555554  -1,0085535182482106  -2,8975  385,1072281250001  19,62414910575743  0,6836028317644823  -0,31698831385694826  182,396875  1880,629091796875  43,36622063077292  -0,2747886086260689  -1,3740166714380087  -7,6425  105,23485000000007  10,258403871948115  -0,14757273668734355  -1,380033416702538
65  -0,63530029296875  0,009495412939786913  0,09744440948452052  1,0638664227961436  0,6208643937470013  -0,2356689453125  0,01952957332134246  0,13974824979706352  0,9986297998506852  -0,7161763006822874  1,26810302734375  0,010574434250593184  0,10283206820147683  -1,0797761390091651  0,23271396179722537  -64,511875  565,6284917968754  23,782945397844973  1,3733694001031453  2,760956828362228  183,723125  1137,697754296874  33,729775485420504  0,002806229380139378  -1,1697638836881221  14,778125  249,06666992187493  15,781846213985071  -1,391620468779536  0,31873087745056283
66  -0,6890380859375  0,0025062781572341907  0,050062742206497146  -0,127788816385796  -0,9616733790679262  -0,38158447265625  0,0005757206141948698  0,02399417875641652  0,8634737416413629  -0,3029854893367059  1,02827392578125  0,023589154118299475  0,15358761056250428  0,6841338986582941  -0,7151588916193425  -77,044375  18,798304296874996  4,335701130944682  0,3702888333940506  -0,6432615635730037  44,45625  947,2212890624993  30,776960360998928  0,8616708495121873  -0,14648274358777558  34,88375  15,793048437500008  3,9740468589965077  -1,8416441972181248  2,513793106642746
67  -0,573828125  0,000623070001602173  0,024961370186794094  0,012400810266417364  -1,0734422282482432  -0,3829736328125  0,001026195549964905  0,03203428709937065  -0,09742710773489408  -1,4336018590845039  0,86698486328125  0,0013910723388195043  0,03729708217568104  0,9201948450013013  -0,6062654787945521  -22,21625  563,2064390625  23,731970821288737  -0,6575602333361477  -1,0432174851731149  7,690625  154,55432617187503  12,43198802170735  0,12557165887993965  -1,2528248807726943  9,83  107,03024062499998  10,345542065305228  1,1097478505804061  -0,28760517869783175
68  -0,64074462890625  0,0077449172675609565  0,08800521159318325  -0,5397311218120353  -0,8812931844297083  -0,5274609375  0,006465366458892826  0,08040750250376408  0,00021410891884036885  -1,42170783249577  1,1973388671875  0,025775621533393845  0,1605478792553606  -0,10096147996528625  -1,3491866986225087  40,935625  615,9533167968751  24,81840681423518  0,2401299583043701  -1,214694369137718  -57,6675  2060,494521875001  45,39267035408911  -0,4377034520571455  -1,0267197749353445  -20,368125  170,19030429687504  13,045700605827003  -0,09907233442804535  -0,8045822117408568
69  -0,77119873046875  0,0070748890101909635  0,08411235943778396  1,2880805405594649  1,0645439585409386  -0,43541259765625  0,01933997079730032  0,13906822353542997  -0,022105893118646427  -1,4260618847983242  1,258291015625  0,03859377374649049  0,19645298100688238  -0,7053826567827797  -0,7742748125192787  60,63375  380,59851718749997  19,50893429143427  -0,44965507731130194  -0,2860120726899429  -213,445  995,0759593749998  31,54482460523437  0,5236503926075693  -1,3509084307205967  -43,138125  231,46908554687496  15,21410810882041  0,4363065639635527  -0,8601223509310167
70  -0,0890234375  0,05511125268936154  0,23475785969667032  -0,20966632329927734  -1,1772815949116555  -0,07071044921875  0,015301392859220508  0,12369879894008877  0,4561479299166704  -1,2465087032655338  0,6336572265625  0,015205460095405571  0,12331042168205238  -0,21245998106479627  -0,5405421763020923  23,3925  928,6957874999997  30,474510455460965  0,12968450274597254  -0,08593178962599923  -175,521875  1412,715498046876  37,58610777996142  -0,2700606330672685  -1,2519323492854275  -13,523125  99,56903554687497  9,97842851088662  0,765955697014203  -0,16694933404745793
71  0,37217041015625  0,0008839000403881057  0,02973045644432836  -1,4509239950500137  1,648622162376924  -0,05023193359375  0,0007982794940471649  0,028253840341574184  0,1877170495797915  0,8211441516712914  0,2250927734375  0,005305941081047054  0,0728418909766012  0,6133441884310261  -0,493119576149621  -4,57625  281,72754531249996  16,784741443123274  -0,48125703726223656  -1,0373028769633963  -26,191875  3060,9713480468754  55,32604583780478  0,1774966212222904  -1,09846010461907  -9,28375  41,52229843749998  6,443779825343195  1,3539215837488847  0,7412615924840695
72  0,0960107421875  0,02242596938610077  0,14975302796972342  -0,1635270241640622  -1,4937517556065967  -0,0076611328125  0,005508073306083677  0,07421639512994199  -1,225901533598487  1,1485082271655038  0,5827099609375  0,07440178701877598  0,272766909684397  0,012631714684311691  -1,7039300931543102  2,156875  1129,6648042968752  33,61048652276362  -1,2144228758648266  0,302728182167709  167,229375  1591,470160546875  39,89323452099209  -0,7479412600639085  -0,8461670996449571  -8,769375  53,76185117187501  7,332247347974222  0,6428828892099796  -0,865217856609827
73  -0,50182373046875  0,020436184948682802  0,1429551851059723  0,7634637686179433  -0,07231078347274522  -0,17829345703125  0,004495988243818281  0,06705213079252799  0,33174930080495446  -0,6900889350056176  1,23884521484375  0,006883878344297407  0,08296914091574896  -0,38032343873448055  -0,7906882076853377  -29,283125  1386,7209730468755  37,23870262303556  0,43222842959276037  -0,8223929397619045  195,0825  882,2552250000001  29,70278143541443  -0,20005734090553784  -0,8706317196068123  -10,096875  125,82995117187502  11,217395026113461  0,3749012134393547  -1,281559575740315
74  -0,66503173828125  0,00194667393565178  0,044121127996140125  0,6180472688666487  0,1891064382443921  -0,31555419921875  0,0010841280162334438  0,03292609931700753  -0,27742611960184893  -0,9708861755449889  1,192890625  0,0030706330299377447  0,05541329289924706  -0,7342190046222268  -0,2700185187049482  -51,64375  150,22519531249992  12,256638826060753  -0,22966583130878482  -1,0637598258317167  87,14625  1584,1483765624998  39,8013614913171  -0,1809694903702046  -0,9902529501077546  8,286875  35,803601171875  5,983611047843518  -0,3235316861957966  -1,1819895172793375
75  -0,51811279296875  0,0017154463469982151  0,04141794716059954  -0,4383897015032957  -1,0027602631748227  -0,31034423828125  0,0007576656997203828  0,027525727959862984  -0,9954421381909152  1,3983671300351084  0,9996142578125  0,00581244728565216  0,07623940769478839  0,8101457801370967  0,2054260912365926  -27,125  564,67875  23,762970142639997  -0,0679064787978548  -1,80901012220424  8,521875  46,55190429687503  6,822895594751178  0,8410248277098596  -0,07364254825814909  7,119375  53,438913671875  7,310192451083282  0,6733584640996492  -1,2083627122831082
76  -0,70739013671875  0,0010408359229564673  0,03226198882518663  0,24828602795310872  0,06181912867736683  -0,4609619140625  0,0035579591989517217  0,05964863115740144  0,4067964111023817  -1,087283025500704  1,26911376953125  0,004987933987379076  0,07062530698962714  0,9048871965278479  0,41157143598774804  35,218125  366,0712105468749  19,13298749664764  -0,09525180579708085  -1,1577725582457055  -92,93375  1870,6502984374993  43,25101499892805  0,4555440104512016  -0,9977830586700414  -9,924375  73,93541367187501  8,598570443502513  -0,41927954402454876  -0,29966245273230996
77  -0,6801953125  0,013172970628738402  0,11477356241198755  2,1737874235141277  3,854430321782762  -0,3726708984375  0,012802271151542659  0,11314712171125989  -0,0714451581534674  0,605478083541088  1,16138671875  0,10726660838127139  0,32751581394074913  -1,031949369388805  -0,3297610680108014  42,650625  1484,960319921875  38,53518288424067  -1,128112295852284  1,0706138512228458  -217,594375  1074,2994917968747  32,77650823069588  0,21955411897750768  -1,5885801194074574  -20,189375  295,11230117187506  17,178832939751032  1,486485571427367  2,343665751021968
78  0,01147705078125  0,05530208408236501  0,23516395149419694  0,09491352063563162  -1,2117828096492977  -0,0033349609375  0,06210967447757718  0,24921812630219572  -0,8348604529465202  -0,6311165807527064  0,52519287109375  0,0139087089240551  0,11793518950701314  0,5350179656946584  -0,09990554922071215  25,006875  4703,131007421875  68,57937742078063  0,7924079338358752  -0,9167730290365768  -151,74875  1350,3826546875  36,74755304353611  0,04212207303367793  -0,43357155305727746  -20,5375  837,0310937500003  28,93148965660082  -0,26980644101450013  -1,7485543485504076
79  0,56164794921875  0,002516950958967209  0,050169223224674396  -1,4172472868597346  0,8181690421167622  -0,04244384765625  0,0013157825171947477  0,03627371661678395  0,38362653245879214  -0,4662403975224705  0,45673828125  0,0027677381038665795  0,05260929674369901  0,061363145048598036  -1,1372405147333993  -5,793125  106,19153867187498  10,3049278829051  -0,18977271332774365  -1,3460147882894016  -18,393125  767,9642417968756  27,712167757085975  -0,5843814894874775  -0,8710667040785491  -5,9425  11,086068749999988  3,329574860248676  0,9471074995621589  0,7965387543701943
80  0,36007568359375  0,033471937960386285  0,18295337646620868  -0,3908917000466857  -0,9037683651248205  0,01437255859375  0,0011585529506206514  0,03403752268630388  -0,24927583496819938  -1,5053049812735104  0,4476513671875  0,011468701577186593  0,10709202387286643  -0,3670495663674663  -1,4938110299340133  8,7125  206,82515624999996  14,381417045965948  -1,4674733694338786  1,6077395990852326  64,46625  1374,5485484375004  37,07490456410509  0,9005814562162857  -0,3551536495405472  0,3025  43,484275000000004  6,594260762208301  1,5493369432726622  1,4030242561690418
81  -0,42166259765625  0,06821190316081047  0,2611740859289268  0,12545460963558383  -1,5610318461151875  -0,139130859375  0,005930432415008549  0,07700930083443525  0,981091775921851  -0,03367078378530852  0,845830078125  0,16119609532356255  0,40149233532355577  -0,08482386092565485  -1,6304618573848353  -26,80125  611,6894046874997  24,732355421340277  0,2985546462134422  -1,375302470963789  236,22875  1964,4870484374997  44,322534318758215  -0,5066235100157538  -0,9285817422336224  10,776875  379,68236367187524  19,485439786463  -0,04570064416887175  -1,443740949853727
82  -0,79349853515625  0,000983463591337204  0,03136022307537375  0,304756253165986  -0,9743132145060942  -0,35838623046875  0,0026850120723247526  0,05181710212202871  -0,059764285335696776  -0,7481475052066049  1,34749267578125  0,02272687918543816  0,1507543670526269  -0,13897571698022648  -0,8772862957235219  -39,9825  301,0936000000001  17,352048870378393  -0,27964324369672333  -1,3032661525341727  159,053125  3162,9278417968744  56,23991324492663  0,18373458006693058  -1,0126170638370449  -4,95875  26,751189062499996  5,172155166127559  0,07762584257149013  -0,6264629123956187
83  -0,66854248046875  0,0023098032176494614  0,04806041216687037  0,17146918621185087  -1,2777341452880087  -0,36716064453125  0,002148300284147262  0,046349760346168584  -0,013300223676009046  -1,4276008650389784  0,95138671875  0,0015947500228881833  0,0399343213650637  0,5788986796200414  -0,4247886853432292  -75,456875  515,2950542968752  22,70011132785201  0,9054338567120372  -0,42582646604442553  31,44375  396,55355468749985  19,913652469788154  0,1565140397410727  -1,3200450673138595  16,219375  39,450663671874985  6,280976331102911  -0,1318116689541528  -1,2129895915307167
84  -0,61261474609375  0,002510957545042038  0,05010945564503807  -0,6416356106702631  -0,9380508856982286  -0,4209423828125  0,0010038428068161011  0,031683478451964536  -0,18458622947514675  -0,8442177740869767  1,07450439453125  0,003969286745786669  0,0630022757191093  0,6972430341233953  -1,052865414570506  23,050625  376,36794492187505  19,40020476494707  -0,39744523937163134  -0,2471256908570738  -35,55125  864,0904203125003  29,39541495390906  -0,521434484013723  -0,9787043804212785  -10,4375  45,81390625  6,768597066601025  0,5636434311667173  0,18151476358604235
85  -0,83465087890625  0,0024879406154155754  0,049879260373581875  0,7451072744831742  -0,2841885466603893  -0,46623779296875  0,0012232855498790737  0,03497549927991127  -0,2151980860090214  -0,9399981418035224  1,249306640625  0,0006603011131286621  0,025696324895374868  -0,5425194842411132  -0,6406086529464989  61,79625  208,3606734374999  14,434703787660483  0,4170699014876019  -0,489299917018823  -168,825  1538,8861718750006  39,22863968932648  0,5698897786755601  -0,93963817638623  -20,74625  40,0570953125  6,329067491542494  -0,5928892407541322  -1,1905406210587277
86  -0,33744384765625  0,07850499755740165  0,2801874329041216  -0,06074363492828946  -1,4353276187418653  -0,28513916015625  0,011014792031049728  0,10495137936706563  -0,06107256491956135  -0,1993980094120844  0,86501708984375  0,026479244107007974  0,1627244422544074  0,4951238983859494  -1,209291980147825  40,30875  655,9185015624997  25,610905910617447  -0,6665551875127533  -0,5211843897903923  -208,08  1096,5282875000005  33,113868507016825  0,669739969504168  -1,1066687976232241  -16,7075  277,62944375  16,662216051594097  -0,21486153013327422  -1,1216006115574142
87  0,29100341796875  0,023874258249998084  0,15451297113834192  -0,4468373344347958  -1,065408862944531  0,03030029296875  0,012560992115736004  0,11207583198770377  0,46230985699234195  -1,383010471352217  0,4674365234375  0,03485598299503327  0,18669757094036674  0,926822998572287  -0,15841628584531442  -9,615625  890,2545605468758  29,837133919779827  0,03692996044598192  -0,8254115108360067  -113,885  1859,5965406250002  43,12303955688885  0,33117787006057825  -1,4152721371453807  -3,553125  167,072138671875  12,925638810978551  0,1461840601788217  -1,4642993327556013
88  0,344990234375  0,012349738693237307  0,11112937817353838  -0,9805856469198209  -0,1543495473384584  -0,02607177734375  0,0008470359981060032  0,029103882869919665  0,8036235893888237  -0,5945330740185972  0,19733642578125  0,002857742661237715  0,053457858741608  0,27654637478044064  -0,7078646054015243  6,78625  92,85493593749999  9,636126604476509  -1,1170846822219924  0,47685389646820875  60,13375  4035,0685171874993  63,522189171875205  0,029263450589252074  -1,258174805587192  -14,118125  24,431788671875  4,9428522810089115  1,657747122103579  1,3304987124121634
89  -0,39943603515625  0,04183019410967828  0,20452431178145614  0,19284324769535036  -0,3597696637644616  -0,15376708984375  0,013567622965574264  0,11648013979032762  -0,11914917378547947  -0,8686917080809033  0,9416845703125  0,17870177152156838  0,4227313230901732  0,5085418044051234  -0,9022483386951206  -18,08125  1133,9557421874997  33,67425934133518  -1,0100789900259717  -0,38057177380942164  249,1725  819,2429781249998  28,622420899095864  -0,053783048049646974  -0,2463269269331061  -5,3825  153,7154125  12,398201986578538  -1,0412074210551359  -0,5150234855581419
90  -0,7031298828125  0,0013608896493911735  0,03689023786032253  0,8768615426023304  -0,5569429780114645  -0,38021484375  0,036785847568511956  0,1917963700608329  0,7034632714202878  -1,2193789617459236  1,31488037109375  0,023002927750349046  0,15166716108093092  0,28507790859392335  -1,07117793857726  -79,79875  1947,2408265625013  44,127551785279245  0,37601406284469785  -0,6695807793091846  155,599375  1474,172819921875  38,39495826175457  0,3260781573765995  -0,44974682292679447  0,43875  157,92992031250003  12,5670171605079  -0,2808771573064826  -0,37366538128870275
91  -0,66929443359375  0,0014206460177898408  0,03769145815420041  -0,6437009171466629  -0,7709600137188013  -0,38606689453125  0,0035551655948162053  0,05962520939012462  -1,6888482677087826  1,6017288296503986  0,9314892578125  0,005918984150886533  0,0769349345283827  1,552463291298422  1,168756558000017  -57,805625  128,03467929687508  11,31524101806387  -0,012487978937637275  -0,7538523610298333  42,349375  689,6636792968753  26,261448537673534  0,22955589567208395  -0,921023601303494  2,61375  76,18120156249998  8,728184322211577  0,01889913200283062  -1,4391081695695278
92  -0,61414794921875  0,00023271009325981124  0,015254838355741802  0,32469659360645925  -1,1306462426479427  -0,39326171875  0,0005015504360198975  0,022395321744058456  0,3630079109384126  -0,32269038103330994  0,846689453125  0,0018352245330810542  0,04283952069154199  1,1280982147183103  0,487490512750119  12,62  420,98583437500025  20,51793933061993  -0,6624758641084167  -0,8771026508060933  -11,37875  38,05240781250001  6,16866337325194  -1,191425878880064  1,1708897834704812  4,370625  41,63408242187497  6,452447785288539  0,30579892467701464  -1,324527712669355
93  -0,785009765625  0,02656331300735474  0,1629825543036884  -0,7262136309396858  -0,8121926831268573  -0,662421875  0,010029480552673348  0,10014729428533428  0,9217919091537727  -0,6579649367636415  1,38633056640625  0,04419189345240592  0,2102186800748352  -0,5445580050347548  -0,9472391510212801  70,56375  1061,3645296874997  32,578590050637544  -0,22045734548501136  -1,405678276950379  -109,348125  3667,915332421874  60,563316722434166  -0,3820209644936416  -1,0718180662860415  -18,75125  507,6312484374999  22,530673501639935  0,2132247171504509  -1,298262830014012
94  -0,75392822265625  0,06311093937754633  0,25121890728515306  0,6198427348024502  -0,3073188490112311  -0,3469140625  0,009659961366653438  0,09828510246549799  0,5801461566921551  -0,496841977967295  1,06137451171875  0,07702406751513478  0,27753210177407367  -0,28528008653235876  -1,097209617825831  54,684375  695,0197949218749  26,363228082347483  -1,4679738156486108  1,6960410331426008  -262,295625  168,34670742187495  12,974849032719993  1,337830063854907  0,8653199790746333  -22,4725  131,44236874999999  11,46483182388647  -0,07619244662729854  0,4767370828931652
95  0,10434326171875  0,058607554310560264  0,24208997152001208  -0,1434521933172602  -1,330301465500877  -0,0083154296875  0,02463735201358793  0,15696290011842903  -0,8997524648086614  0,6943960945511272  0,37691162109375  0,03132838255763056  0,17699825580392187  0,8127314436033543  -0,3357273076614051  6,845  1263,8510531249997  35,5506828784624  0,7787201150589306  -0,8775071009819237  -150,300625  2314,330288671876  48,10748682556465  0,3615022312778157  -1,332201088787997  -4,06625  502,59732968749967  22,418682603745914  -1,110515519139409  -0,004114714250183393
96  0,4965283203125  0,00218294928073883  0,04672204277146741  -1,3790713521476299  1,5598686497830272  -0,07242431640625  0,00039969846606254585  0,01999246023036049  0,9339231484751758  0,5858636361022147  0,23944580078125  0,004126884764432907  0,06424083408886365  0,9139229515340159  -0,8308929126895079  6,4725  181,35799374999996  13,466922207765217  -1,0213401430484257  0,08233074190429734  18,96875  1630,6885546875  40,381784936868506  0,07817301314714967  -1,2095161242108432  -11,338125  14,062116796875005  3,7499489059019195  -0,43729001180190846  -0,8720390478757554
97  0,1238232421875  0,04052055523395539  0,2012971813860179  -0,19509204673605016  -0,9064993716066438  0,03413818359375  0,0010713935554027556  0,03273214865239915  -0,21493022386292263  -0,8384781364334661  0,5549072265625  0,028421475291252146  0,1685866996273791  0,25333053659178334  -1,0463340429312769  10,541875  414,5039105468749  20,359369109745884  -0,7601382265682992  -0,29163652174278587  155,64125  1741,3983296875  41,730065057312096  -0,10194045944343251  -0,8415406570405755  -8,913125  40,30217929687498  6,34839974299626  0,2401655442217346  -0,7781112481485883
98  -0,575517578125  0,0283616982460022  0,1684093175747773  0,12767982589330223  -1,6598826089108702  -0,11320068359375  0,005731911724805835  0,07570938993814331  -0,22206505500094162  -0,9360584817531348  1,19929443359375  0,058436610335111584  0,24173665492661964  -0,2797491780261237  -1,3050990194581804  -37,690625  1939,7289355468756  44,042353882903164  -0,16779168752319046  -1,430122357461614  229,08125  859,4370703125  29,31615715458798  0,13152294328110095  -1,177834873537595  -3,353125  234,903857421875  15,326573570823813  0,5483632304126365  -0,699589946096935
99  -0,75449951171875  0,0026389721095561986  0,05137092669551717  -0,26612462751974214  -1,5211184137631137  -0,4094921875  0,0021077276229858406  0,045909994804898865  -0,10721471482423335  -1,443191044483605  1,20415283203125  0,03173852240443229  0,1781530869910266  0,24095618629646082  -1,6187189383720662  -78,52875  299,65573593750014  17,31056717550006  0,32181956051855387  -0,9459762629763411  99,81  2629,0667906250005  51,27442628274841  0,33868937063628557  -1,3281111534019843  24,15125  10,7616546875  3,2804961038690474  -0,8660040287209962  -0,5626954321853277
100  -0,652265625  0,001362498855590821  0,03691204214874627  -0,007094105825841758  -1,3611300958575652  -0,37248291015625  0,0036446007430553425  0,060370528762429626  -0,12563744110264985  -1,6352807283490398  0,90015869140625  0,0010565416514873502  0,03250448663626839  0,026846025570276384  -1,0627176120993589  -48,718125  968,4869136718752  31,120522387515848  -0,03255414814421219  -1,2367268523912835  14,205  22,46844374999999  4,740089002328964  0,9856995964049775  -0,132470751554445  3,411875  170,58336679687497  13,06075674671552  0,251561432219376  -1,2946057163282885
101  -0,655478515625  0,0011343058586120605  0,03367945751659401  -1,5166429635264014  2,448441742114354  -0,408037109375  0,008812633609771725  0,09387562841212689  -0,1660518370395755  -1,4700131888781078  1,1256689453125  0,010455454134941105  0,10225191506735268  0,4953193092163332  -0,8250025956196199  44,82125  461,8753140624998  21,491284607079674  0,3057584926750867  -0,8007676182067534  -26,5025  1012,3028062499997  31,816706401668913  -0,07066094462484199  -1,4528199380837459  -21,671875  31,081435546875  5,575072694313053  -0,6456746898682377  -0,4354899589054919
102  -1,06278076171875  0,018162316530942905  0,13476763903453567  0,610249185894101  -0,7359863587559019  -0,49438720703125  0,0061718112170696246  0,07856087586750561  1,4814755856853312  0,7497531108307385  1,3231103515625  0,041258694434165966  0,20312236320544808  -1,051321211874347  -0,11687800700861528  74,67125  79,57543906249997  8,920506659517718  -0,9245303570300011  1,2873138879308224  -193,865  3880,7463843750006  62,295636960986286  0,4401208598841923  -1,143709147273485  -29,744375  41,043523046875016  6,406521914960957  0,17325995514269713  -0,39619075519520486
103  -0,326572265625  0,08513292374610898  0,2917754680333989  -0,29945293126727235  -1,2449138730283071  -0,15065673828125  0,017425880545377734  0,13200712308575524  -0,5825949348728631  -0,17291321373323587  0,5188427734375  0,0241505460500717  0,15540445955657675  0,3101958410958277  -1,345451633315395  11,645  136,97874062499994  11,703791719993992  -0,0602899054014856  -0,13815452292862584  -188,975  2618,689765624999  51,17313519440644  0,11311826622512022  -1,462724846939986  -11,83875  76,85259218749998  8,76656102399909  -0,3221394673046199  -1,2869714057743287
104  0,38929443359375  0,009328341931104657  0,09658334189240222  -1,1199167988744871  0,661339220991505  -0,0466845703125  0,0008821518182754515  0,029701040693474894  -1,4647452256874338  1,2104790935201466  0,46322998046875  0,0007337413966655734  0,02708766133621678  -0,09453519525646956  -1,3213383888179127  1,145625  101,15976992187501  10,057821330779097  -0,45692358656957  -0,8029251418123611  -50,318125  1444,7685230468746  38,01011080024465  -0,20436697318675912  -0,8643557029614768  -13,690625  77,103701171875  8,780871321906215  -0,6984114275529164  -0,9423437638832652
105  0,2567138671875  0,028934265971183776  0,1701007524121624  -0,44124168875370573  -0,8351251824932677  -0,01815673828125  0,0033898719012737284  0,05822260644520931  1,0572300166291837  -0,3041636024586545  0,41414306640625  0,0017758596599102016  0,04214094991703678  -0,3404688451978176  -1,2706573075946526  4,53875  34,7812328125  5,897561598872876  -0,7630507652118912  0,8368388928210484  76,39625  1795,349939062499  42,37156993860977  0,5826646312001829  -0,8850485311614751  -0,550625  22,082944921875004  4,6992493998377025  1,5890130198968289  1,1114568915128382
106  -0,50692138671875  0,0686366157233715  0,26198590749002415  0,24071591019312674  -1,429058482523098  -0,11876708984375  0,007443540638685226  0,08627595631857828  -0,746301503150424  -0,12399868835264893  0,87944580078125  0,08149520074725151  0,28547364282408194  -0,32340475063587154  -1,5072474658633814  -19,600625  1291,7785074218746  35,94132033498317  -0,9454473714079802  0,4758279833503507  209,495625  421,62369179687516  20,533477343033624  -0,5083839947928319  -0,493167335945762  19,0625  156,3909375  12,505636229316764  1,1095142737240549  -0,05113607298182732
107  -0,9312353515625  0,0016637161016464224  0,04078867614481282  1,0655858821535704  1,001454036627364  -0,4479638671875  0,0031916654348373434  0,05649482662011933  0,2279257187744333  -0,9136062076382743  1,185849609375  0,005086126470565797  0,0713170840021225  0,30050742358406823  -0,9255514625894197  -67,97125  692,5214390625002  26,31580207902659  0,26116070537195224  -0,3119611127602204  134,83125  2111,0312890625  45,94596053041551  -0,3944863636474778  -1,1541189998302965  32,69125  156,97732968749997  12,529059409528713  -0,16296144750939853  -1,1964008890345765
108  -0,53867431640625  0,03266972314715384  0,180747678123825  -0,027863964172398108  -1,6420051814692607  -0,48163330078125  0,003886977261304856  0,06234562744334887  0,750342323417421  -0,7249717907159998  1,123115234375  0,00948697338104248  0,09740109537906891  -0,18953020532186585  -0,7560649221732785  -36,265625  2081,036357421875  45,618377408911364  0,1314261213165848  -1,39323578776283  3,2325  1202,0404749999998  34,67045536187836  0,843510339307037  -0,9753623902963535  11,755  591,4287250000001  24,31930765873075  -0,062192786983319294  -1,21794387411316
109  -0,49948486328125  0,013025066727399821  0,1141274144428052  0,15933302793308413  -1,0299909912159069  -0,31600341796875  0,0010761813819408416  0,03280520358023772  -1,8876422348779756  2,8765792815467472  1,07274169921875  0,010050201863050461  0,10025069507514879  0,864388008208725  -0,543340978828156  21,945  25,156193749999986  5,015595054427738  -0,08276911743799145  -0,7727103778891418  -19,22  431,79925625000004  20,779779985601387  -1,202659309439689  0,2534729339863153  -27,343125  35,41941367187501  5,951421147245002  0,9394559741706283  0,014364322319711853
110  -0,82339599609375  0,004922819918394088  0,07016281008051266  0,5135803235398746  -0,3670993562217655  -0,49434814453125  0,0008341126143932342  0,028881007849332997  -0,3791476897046009  -1,0271851928486044  1,39274658203125  0,0014996524989604942  0,03872534698308711  -1,080244125827639  0,9730537421539127  55,123125  143,26089492187498  11,969164336822976  -0,5996457720769904  -0,7894495050617847  -160,205  2330,1113343750008  48,271226775119366  0,12347514561487322  -1,0486534745727651  -26,969375  20,444023046875  4,521506723081919  0,4267036818686409  -0,7678951464931503
111  -0,45787353515625  0,08696993634104727  0,2949066569968323  0,20591897756864413  -1,592548218011417  -0,27488525390625  0,01421664387583732  0,11923356857796935  0,06636078317621093  -0,849187985430305  0,78963623046875  0,0934960334002972  0,3057712108755453  0,20553562718994986  -1,6367884330169868  30,21625  1455,6501109375  38,152982988719245  -0,1156724643601061  -0,932082600370522  -219,82375  1278,9066703125  35,76180462885647  0,9587582525004832  -0,48811362472252995  -26,70375  252,97700156250002  15,905250754467847  -0,12922588249074068  -1,3348456792435643
112  0,3231640625  0,025195892906188955  0,1587321420071844  -0,2555879244900486  -1,1843938827962968  0,04877197265625  0,003591482466459273  0,05992897852007218  -0,28727752015002916  -1,0726670849610473  0,437236328125  0,006964184856414792  0,08345169175286259  -0,23433999473939798  0,4556417024121999  2,254375  860,1768167968744  29,32877114365473  1,2446260451005546  0,888338959735512  -69,41875  1051,5262109374996  32,42724488663043  -0,04654902902653115  -0,6076672020003784  -13,00375  129,6224078125  11,385183696915039  -0,7136879816174642  -0,4656853147000133
113  0,52540283203125  0,004130416363477708  0,0642683153931835  -0,0470325652341091  -1,2485762306002552  -0,04317626953125  0,0004354445636272429  0,020867308490249595  -1,0306578422587056  -0,2925295597375679  0,5241552734375  0,006332735800743105  0,07957848830395753  0,24353043632601437  -1,5497405237734965  5,05875  19,8010015625  4,4498316330508505  -0,11008811781953244  -1,0550806409892055  32,171875  502,004873046875  22,405465249507206  -0,6819601346737386  -0,9714759214904372  -9,186875  10,113554296875003  3,1801814880404238  0,4766394900829753  -1,133242918817611
114  -0,00984130859375  0,045827798479795456  0,2140742826212328  0,36827016427898207  -1,1625740391902495  0,0135302734375  0,0036111857652664212  0,0600931424146418  0,5103172366032748  -0,8879754297882139  0,53322265625  0,02304783782958984  0,1518151436108725  1,1686434493491784  0,8166868114102894  2,09125  412,55276718749997  20,311395008405995  0,21792001367859232  -0,8564978861555006  155,843125  2221,248398046876  47,13012198209205  -0,1600563794147497  -1,3059259973726982  -3,940625  120,89307617187497  10,995138751824598  1,2103942186590584  -0,1182558787125525
115  -0,5116796875  0,00763911571502686  0,08740203495930092  0,11046571507738581  -0,8257219139954723  -0,208759765625  0,014268804407119752  0,11945210089035585  -0,9847834908525934  -0,5184853100785634  1,35115234375  0,006898819065093994  0,08305912993219947  -1,3765478366735664  2,4907844866424496  -50,735625  625,6758480468749  25,013513308747232  0,17974428330965722  -1,3792161347136032  185,668125  1480,0970855468759  38,4720299119617  0,2830256112324236  -1,1076721550774882  10,138125  65,95228867187501  8,121101444500924  0,1366743204013226  -0,5670343676322842
116  -0,66089599609375  0,00039206916689872703  0,01980073652414796  0,9452088821187462  -0,4456126837710186  -0,3293212890625  0,006347629427909853  0,07967201157188046  -0,07830105546774335  -1,4697453283056723  1,072900390625  0,009178873300552358  0,09580643663424894  0,974252863352712  -0,19669502958888563  -69,15125  460,44267031250035  21,457927912836794  0,028154967215323914  -1,3302825527226416  72,066875  734,7668167968748  27,106582536293185  0,44469738252380997  -0,9400772587186226  22,913125  148,82741367187498  12,199484155974586  -0,6387732450529943  -1,2235544156551903
117  -0,59826171875  0,0022193842887878418  0,04711034163310474  0,15041291020452868  -1,2125824096130113  -0,376103515625  0,0008108478546142578  0,028475390332956943  0,3958368074814091  -0,9432989565896652  0,85679443359375  0,004526375836133957  0,06727834596758422  0,30355805378073036  -1,0808656887296297  -30,585  116,43230625000002  10,790380264383643  0,5728922633481184  -0,9542147323076864  5,031875  95,49097617187499  9,771948432726965  0,6379116929042341  -0,7281849772171327  13,334375  79,51737304687506  8,917251428936781  -0,1634027703113905  -0,8521440110392149
118  -0,61474609375  0,0024549531936645507  0,04954748423143753  -0,2546885582685955  -0,8434294530560353  -0,4356689453125  0,005002521872520447  0,07072850820228323  -0,2638947473131294  -1,5020587607054754  1,23501220703125  0,03316579090952873  0,1821147740012565  -0,1455189168351371  -1,0736203777027016  41,93625  569,0354671874999  23,854464303092197  0,5041663730485164  -0,49025432894175625  -32,1925  2182,5525531250005  46,71779696352345  -0,3401781091811804  -1,1479440975294233  -21,638125  21,41017929687499  4,627113495136573  0,2062759080614312  0,07767908852502492
119  -0,88923828125  0,01495986804962158  0,12231053940532509  0,25885215365882974  -1,3595982274575478  -0,406494140625  0,01918960452079773  0,13852654807219347  -0,13484254219051903  -1,5226032625589798  1,37460693359375  0,08548787938952446  0,2923831038030831  -0,7344852312842584  -0,8528855358203575  72,4175  1886,7217093749998  43,43640995035156  -0,362883659954634  -1,4067655145943532  -220,725625  3324,061866796875  57,654677752953184  0,4681985891181193  -1,3062329881317212  -24,81625  344,79373593749995  18,568622348938543  0,13375761329437705  -1,5033252838072804
120  -0,16535400390625  0,07073145424723619  0,26595385736483723  -0,3341462145463651  -0,8860842406537239  -0,09882080078125  0,004621628350019457  0,06798255916056306  0,7885098038452925  -0,18925477828348036  0,47139404296875  0,012054667538404467  0,10979374999700332  0,43655041944088474  -0,711542245112029  5,03625  1544,6486078125008  39,302017859297  1,2402967626527126  0,04047457016962763  -167,38125  3803,2073046874984  61,670149218949504  -0,455890581396793  -1,2573270463184643  -11,923125  126,79451992187497  11,260307274753872  0,06937546206074488  -1,492686927297439
121  0,4592529296875  0,007106595635414123  0,08430062654223942  -0,728746691115603  -0,689433641933368  -0,03387451171875  0,006443481892347336  0,08027130179801083  -0,20825338500246995  -1,3685641319915685  0,5050146484375  0,007204541468620302  0,08487957038428212  -0,5011664210723383  -1,4153127307435527  -2,62  218,26419375000015  14,7737670805384  -1,0186149742060633  0,3640100052726529  -24,02375  796,3790453125004  28,22018861227721  -0,734025237598756  -0,46280099028163457  -8,4675  27,868553125000002  5,279067448423064  0,4323697681798834  -0,6317455662475613
122  0,33838134765625  0,014894894951581958  0,12204464327278751  -0,4362751270019706  -1,0777327779334767  -0,02095703125  0,003598467969894409  0,05998723172387945  -0,12766465690688902  -1,3987456435181007  0,49781005859375  0,006461579149961468  0,08038394833523337  -0,9913782810812942  -0,5757441306863265  7,69875  368,48877968749997  19,196061567089746  -0,54785868790756  -0,664974044345759  61,900625  1076,8956324218746  32,81608801216066  0,20595651906391235  -0,9222305779409092  -7,9425  38,035990625000004  6,167332537248174  -0,2759978512008968  0,9264061908675338
123  -0,2956103515625  0,04808956191539763  0,2192933239188955  -0,2559720347401369  -1,2133137612611529  -0,077158203125  0,0069055270195007325  0,08309950071751775  -0,2711809205776765  -1,264255067875054  0,89856201171875  0,13603171407580375  0,36882477421643434  0,06390740794836028  -1,592827712820759  -1,6  2422,743593749999  49,22137334278676  0,4144554845882561  -0,2930743139928178  209,590625  2470,101201171876  49,70011268771808  0,1457421651694166  -1,442987287398683  5,856875  874,2736167968751  29,56811824916958  -0,0070449412447773545  -1,2866165058648484
124  -0,670810546875  0,0018894917011260985  0,04346828385301286  -0,2876532039171  -0,7770005155246502  -0,38388671875  0,016826018095016482  0,12971514211924715  0,2544250957497466  -1,313116333920206  1,22087646484375  0,01880220806002617  0,1371211437380325  0,219857562116668  -1,4924417602739106  -108,55875  1388,5571734375003  37,263348929444064  -0,7064938396621481  -0,43689031746410967  134,180625  1570,766163671875  39,632892446450015  -0,1477291830661609  -1,2223308070930397  22,99125  50,34304843750001  7,095283534679922  -0,6983282202105975  -0,5312448770672615
125  -0,62012939453125  0,0038640598952770235  0,062161562844550676  -0,30008327281119773  -0,9591949023339028  -0,59307373046875  0,0019110284507274622  0,04371531139918212  -0,4849108625892357  -1,0199583825981704  0,8806640625  0,019897047281265262  0,1410568937743394  -0,08027332385906231  -1,4686887072421684  -107,310625  2911,5134730468762  53,95844209247406  0,020152123214173832  -1,7623245221569313  8,74875  445,4848421875002  21,106511843208487  0,5518652948458437  -1,249158395012077  32,14125  99,44270468749997  9,972096303561251  -0,6354674712769107  -0,9414454732953015
126  -0,57703125  0,0006902485847473147  0,02627258237682993  0,35672074197221576  -1,322373891207473  -0,51595703125  0,0014304238796234137  0,037820944985859535  0,5235447434467161  -1,0802225229977624  0,90585205078125  0,01338521916270257  0,11569450791935877  0,001996101314872017  -1,5539297377096133  44,61125  2038,5321546874998  45,15010691778592  0,3347839559207636  -1,2756106914739498  -6,551875  297,81766054687495  17,25739437304702  -0,8180582348384756  -0,6180881295640548  -9,424375  126,28088242187496  11,237476692828999  -0,13895330546011703  -1,4009264503193097
127  -0,7099951171875  0,009252156043052674  0,09618812838938427  -0,4323904584972308  -1,4587889061669908  -0,733486328125  0,01212584557533264  0,11011741722058614  -0,23076581041689453  -1,1491104921738318  1,33681884765625  0,013592448109388356  0,1165866549369539  -0,17760817768177242  -1,293332133123692  92,015625  225,044091796875  15,001469654566348  -0,0820687144597469  -1,1544905471821922  -139,244375  2811,9594605468737  53,027912089265534  -0,17132941495974266  -1,1669910925966014  -52,973125  467,8607230468751  21,63008837353364  -0,13546906996117716  -1,721800797991775
128  -0,46244384765625  0,07207034832835194  0,2684592116660405  0,1484800202194672  -1,367786895904154  -0,2622021484375  0,02897527453899383  0,17022125172549352  -0,05744386154840308  -0,7520813083445872  0,9680908203125  0,05247139871120455  0,2290663631160292  0,052419217106674854  -1,2129553790406664  56,9025  374,77400937500016  19,359080798813775  1,3725500511144622  2,154134265979187  -238,129375  225,05775429687506  15,001925019705807  1,0528406834415442  0,3299509743354694  -47,92875  190,62117343749998  13,806562694512344  -0,2428388644557508  -1,4365125842632218
129  0,29340576171875  0,028183724039793013  0,16788008827670128  0,007685450629023933  -0,9496327327670868  0,033662109375  0,01230450186729431  0,11092565919251646  0,1871137896926637  -1,6412341279004583  0,29203369140625  0,014348030155897131  0,11978326325450117  1,9666100828895274  3,940471314132961  -15,19625  307,0966421874998  17,52417308141813  0,8154987068913959  0,3571990870522286  -115,62625  2810,767810937497  53,01667483855902  -0,25263624955080227  -1,2298451529345924  -5,121875  73,34838867187501  8,564367383051419  0,11708945586165667  -0,9569164200966265
130  0,6784326171875  0,002484426522254944  0,049844021930969255  -0,5616342821303767  -1,0489023473578625  -0,0485302734375  0,0005935353994369504  0,02436258195341681  -0,31768057624980867  -1,3728172187038394  0,42125244140625  0,011324760168790806  0,10641785643768063  0,02125786713873037  -1,2372303968032365  13,508125  37,50598867187499  6,124213310448534  0,5881503877014046  -1,1794103877510393  10,20375  245,9864546874999  15,683955326622806  -0,6353363423575452  -0,3319094276876795  -7,559375  16,990419921875024  4,121943706781429  -0,609085972412881  -0,9316308086070046
131  0,40005615234375  0,03300602752566338  0,1816756107067302  -0,013440625166528889  -1,367499734640599  -0,00814208984375  0,0019946365058422077  0,04466135360512719  -0,03715977787927662  -1,2964609900683035  0,36330810546875  0,012887639874219892  0,11352374145622532  0,5187091126607584  -1,1807254068284254  26,625625  301,158007421875  17,353904673642617  1,6313144278729386  1,4036468970442382  83,5275  2451,4433062499998  49,512052131274054  0,5314304748757996  -1,0395068440736117  -25,714375  183,75001992187498  13,555442446555368  0,10426749942655136  -1,0902252313620406
132  -0,258046875  0,04756937255859376  0,2181040406746142  -0,07867663141320368  -1,269630667229534  0,11760498046875  0,005529859417676923  0,07436302453287469  -0,11873024296502807  -1,527518642223162  0,9623828125  0,07522988400459292  0,2742806664797811  -0,23460959823411662  -1,2999709445433711  18,59625  751,6226890624998  27,41573798135844  0,23232831108472854  -0,845935809526984  234,14875  218,16443593750017  14,770390514048712  -0,7309913071410983  0,29804413829720566  -51,5525  27,725134374999993  5,265466206804483  0,1764205687345801  -0,7409983610428741
133  -0,79183837890625  0,00887161571383476  0,09418925476844352  0,060807390384337655  -1,1526376834373124  0,03949951171875  0,00632162844538689  0,07950866899519127  0,28156836150039954  -1,3172892533806686  1,243115234375  0,010339808464050294  0,10168484874380398  0,49906271615908077  -1,212982250858554  -47,43875  2197,3717953125  46,87613246965347  0,0737800833095964  -1,5602155667117572  170,3025  571,9327906250002  23,915116362355423  0,6126132834737931  -0,3867718677372056  -37,179375  220,76528554687513  14,858172348807747  0,11043818827909219  -1,661758535075312
134  -0,81560302734375  0,003031553381681443  0,055059543965432944  0,09819877939316747  -0,7268465584057524  -0,13196044921875  0,0015722626388072949  0,03965176715869414  -0,17450300219373657  -0,10501155351590974  1,05578369140625  0,011934050911664966  0,10924308175653488  0,484507366372016  -0,23726982636054128  -78,98875  115,71987343749997  10,75731720446599  -0,4008285141123116  -0,5674259538616835  40,093125  1717,7448042968747  41,44568499007918  0,3194164571068191  -1,197279120385918  4,889375  101,47772304687498  10,073615192515296  -0,6970775088740204  -0,7041481888233054
135  -0,65683837890625  0,0017709709346294398  0,04208290549177231  0,2535867302053705  -1,4844550267902035  -0,14892578125  0,005241190195083618  0,07239606477622675  0,34587681516177754  -1,1864769499793717  0,92125  0,0016187194824218766  0,040233313092782656  -0,4104350232642478  -0,6821339083880842  -13,204375  406,8899886718746  20,171514288021974  -1,1283850191360476  0,5165711161850957  -9,50125  113,93835781250002  10,674191201796042  -0,2335903539475728  -0,9020030961649872  -2,655625  165,13910117187504  12,850645943759988  -0,5191536512023921  -1,2811079711012896
136  -0,76708740234375  0,002550659769773483  0,0505040569635102  -0,9326688130303213  -0,38548138334208426  -0,283984375  0,008626755475997923  0,09288032878924322  -0,3990490428858342  -1,1987913102051415  1,2493701171875  0,04166960976123809  0,2041313541845987  0,2518619988871495  -1,5168938095235378  26,875  282,73125  16,81461417933816  1,1578250913085224  -0,007585042461442981  -90,67625  1996,8785453124992  44,686446998083206  -0,5519593380903156  -0,9148123610649654  1,73875  47,6239359375  6,901009776655878  -1,1689338222169174  0,8793472579268107
137  -0,7682666015625  0,04279429123401642  0,20686781101470675  0,5647953739470608  -0,9918444214247311  -0,22395751953125  0,008630071943998334  0,09289818052038659  0,05625101720879  -0,704874871369209  1,276748046875  0,06368035831451418  0,25234967468676117  -0,2152772776046535  -1,2924653583005126  36,22  698,1159749999997  26,421884395326533  -0,1637031677366026  -1,7681922144654993  -253,429375  655,2436449218748  25,597727339001693  1,3829952305713191  0,5673720695015727  0,113125  149,84841367187485  12,241258663710806  -0,5805959602394698  -1,2437267324079946
138  0,0221484375  0,04062236914634705  0,2015499172571079  -0,14035159854117074  -1,1440746501114605  0,05169189453125  0,004460909193754197  0,06679003813260026  0,03979214677559285  -1,5393512576758983  0,42646728515625  0,03231680833697318  0,1797687635185078  0,7447961293670309  -0,7509713310082415  -8,81125  294,7199984375  17,167410941592212  0,44622325259522155  -0,5380146540182591  -165,4175  2885,544600000002  53,71726538088105  0,04988905554570493  -1,2596393180045662  9,838125  88,19922617187504  9,391444307020887  -0,3184434833650493  -0,7804525578978625
139  0,547587890625  0,0026473089218139612  0,051452006003789214  -1,4235437265978619  1,7242263397918567  -0,0734912109375  0,0008532988786697391  0,029211279990266417  0,13711249738097422  -1,3376696054899235  0,3553466796875  0,004007449746131897  0,0633044212210482  -1,0419997022541598  -0,23146439526853957  3,53375  150,25979843749997  12,258050352217516  -0,0421168532318559  -0,6389133531017146  -3,268125  855,1328355468752  29,242654386133882  -0,5986551154294348  -0,37218662135372016  -1,579375  100,41491054687499  10,020724053025061  0,6908061594585345  -0,31342483706338076
140  0,36519287109375  0,018804199761152263  0,13712840610592783  -0,06725664503503996  -1,1669922574974354  0,020908203125  0,0024256950855255114  0,04925134602755047  -0,2873548847240607  -1,4748723867671714  0,5295654296875  0,005043576359748843  0,07101814106092079  0,71437223894364  -0,8731525434026137  24,83  56,63008437500009  7,525296298153322  -1,1618293437488267  0,16339975805259366  96,45375  1008,6137984374998  31,758680678477496  0,17901827475607973  -1,4626292281023308  -21,578125  6,825263671875  2,612520559129631  0,29261722990205624  -0,16588804762138754
141  -0,19455810546875  0,074278768414259  0,2725413150593117  -0,10780007315854051  -1,367519156480568  -0,03827392578125  0,016252358978986744  0,12748474018088105  0,4610926227773127  -1,357043215194868  0,99596923828125  0,03773160278201102  0,19424624264580004  -0,5032494664385413  -0,8414961503039127  -23,495625  414,5329105468752  20,360081300104753  -0,10240277006250023  -0,24141596153103917  191,465625  288,6597167968749  16,989988722682394  -1,0412309174102576  0,14993897697369718  1,67875  77,60945468749998  8,809622845928194  -0,4146691632963024  -0,24037346455654207
142  -0,73988525390625  0,004645113056898118  0,06815506625994959  0,2462309038039421  -0,8385782119820124  -0,14429443359375  0,0017042380034923566  0,041282417607164876  0,6113879067998129  -0,6614157101919722  1,1070458984375  0,0028898101091384886  0,053756954053763954  1,1885745287397589  1,1467385593948078  -25,753125  92,49909179687498  9,617644815487573  -0,1330825156508222  -1,145906290123658  162,3325  102,77061562499999  10,13758430914387  -0,15633118287051623  -1,109254998130279  -3,55  2,7863281249999976  1,669229799937683  -0,2567662766783213  0,8582967454852168
143  -0,75166259765625  0,0019769712626934058  0,044463144993279614  -0,642887434051798  -1,1399217347821418  -0,230400390625  0,002745509243011475  0,05239760722601248  -1,1178975973574183  0,2983041571817959  1,1165234375  0,011521121358871463  0,10733648661509032  0,32991683605032945  -1,3721760604192135  -63,78  999,9465218750006  31,62193102697874  -0,7644506547862362  -0,7085656662778996  41,864375  2892,317504296876  53,78027058593956  0,16898647088269642  -1,1675537781126355  8,816875  105,8780667968751  10,289706837265827  -0,2025511982476254  -0,8930702111309965
144  -0,66827880859375  5,643827319145199e-05  0,007512541060882928  -0,5017369133799205  0,34792451738649266  -0,32646484375  0,0013512969017028817  0,036759990501942216  0,8751084030760071  -0,7017433030524187  0,8743115234375  0,00831541821956635  0,09118891500377856  0,5049754948313333  -0,9446216974231691  -13,80875  376,69256406249974  19,408569346103278  0,05823109684045044  -1,623025618942857  -22,995  79,20364687499996  8,899643075708147  -0,3356522174451225  -1,2938525332519648  0,75125  239,93382656250003  15,489797499079838  0,23016413951332068  -1,4683285612191834
145  -0,80525390625  0,011856101608276364  0,10888572729369246  -0,2295507003572029  -1,6499791708294194  -0,3852294921875  0,0042916792631149305  0,06551090949692982  0,20521491588744334  -1,73392824150765  1,32924560546875  0,015309238547086707  0,12373050774601511  -0,47201848280341263  -1,3635216649670738  47,270625  634,4680511718749  25,18864925262716  -0,12560463424932516  -1,0479750199768214  -107,0175  2840,8259437500005  53,299399093704615  -0,3481330907373733  -1,2659705276073094  -27,089375  67,59619179687498  8,221690324797875  0,00809724133650904  -1,536497890383698
146  -0,68915283203125  0,07516952616572377  0,27417061506610035  0,49755556723253225  -1,1389926032784023  -0,2607763671875  0,00657959105968475  0,08111467844776771  -0,3604889932579599  -0,39085556074826133  0,92013916015625  0,14827898966670028  0,3850701100665959  -0,07909178401187554  -1,484776026693674  41,615625  923,8402636718758  30,394740723879778  0,08296014954304215  -1,562008994956234  -240,110625  692,2887386718752  26,311380402249426  0,598102368661666  -0,5942242545832781  -15,030625  230,26542929687508  15,174499309594207  -0,38471282011442665  -1,4996607234668264
