ventana  acc_x__mean  acc_x__var  acc_x__std  acc_x__skew  acc_x__kurtosis  acc_y__mean  acc_y__var  acc_y__std  acc_y__skew  acc_y__kurtosis  acc_z__mean  acc_z__var  acc_z__std  acc_z__skew  acc_z__kurtosis  gyro_x__mean  gyro_x__var  gyro_x__std  gyro_x__skew  gyro_x__kurtosis  gyro_y__mean  gyro_y__var  gyro_y__std  gyro_y__skew  gyro_y__kurtosis  gyro_z__mean  gyro_z__var  gyro_z__std  gyro_z__skew  gyro_z__kurtosis
1  0,2505908203125  0,07233563444614412  0,2689528479978305  1,0271369140807474  -0,34563157488878327  -0,05673583984375  0,00012246953845024112  0,011066595612483594  -0,12395161496993046  1,803977541907499  0,9337353515625  0,028199794507026678  0,16792794438992778  1,4949309085544453  0,9300928646731501  -5,658125  20,930582421875  4,574995346650638  1,5218965458493712  3,4481596855031835  -14,6425  130,08516250000005  11,405488262235863  -0,5513093359239285  -1,300536663973593  14,580625  183,53908554687507  13,547659781190074  0,1460106309064441  -1,387363746543538
2  0,79148681640625  0,054462955302000064  0,23337299608566553  -0,562637449230737  -1,157361775499209  -0,100029296875  0,01101425538063049  0,10494882267386561  -0,835177249022295  -0,95988230008961  1,30565673828125  0,035134974068403255  0,18744325559593564  -0,21830941966110906  -1,642593656121914  -0,86125  192,1277015625  13,861013727808656  -0,45781568491788177  -0,9969261830396459  -9,6075  910,5509437500003  30,17533667997758  1,4369419882440568  1,009942470743841  17,0425  352,87850625000004  18,78506071989122  -0,48950688214144983  -0,004385430183154071
3  -0,03799072265625  0,022561647766828535  0,15020535199129403  -0,12474257953247303  -1,1162213931030203  -0,12081298828125  0,008353938311338436  0,0913998813529779  0,646280691451157  -1,1052313112826553  1,42250732421875  0,014816609734296804  0,12172349705088498  -1,1854710582876866  0,23033473156662376  2,321875  931,3775292968749  30,518478489218214  0,15019719041922086  -1,5646564427004792  42,176875  898,6382074218742  29,97729486497863  -0,3628119808405777  -0,5931548751941245  -6,74375  576,9301171875004  24,01936962510674  0,43342248266645567  -1,263715335094344
4  -0,42787353515625  0,024708868569135647  0,15719054859989404  1,6508441879167965  3,5277464945474186  -0,28094970703125  0,009783946102857592  0,0989138317064787  -0,26403449921844985  -1,1153712905071467  0,9341552734375  0,0445019644498825  0,21095488723867598  0,148920858815156  -1,3757524247450932  -41,131875  791,0186636718751  28,125054020781455  -0,3775625226918878  -1,2764407242797309  -3,869375  1894,379460546875  43,52446967565343  1,6218064169828854  1,7465555292627784  -59,119375  1101,678288671875  33,191539414011444  -0,18558013664879305  -0,995781191677489
5  -0,2239013671875  0,058433364033699024  0,24172994029225883  0,13303073021001144  -1,2238866749140371  -0,0617919921875  0,0021613520383834827  0,04649034349607973  -1,2487652949321335  1,0073647476158785  0,68827880859375  0,0949496813952923  0,3081390617810282  -0,14021329206941574  -1,240241583888725  1,879375  93,70611367187503  9,680191819993809  0,4708973101883099  0,3247174827518724  -47,355625  1309,572319921875  36,18801348405125  0,7377101488145902  -1,1642139727224672  -34,361875  259,7217417968751  16,11588476618256  -0,5819906480302387  -1,051581148487418
6  0,1977490234375  0,002364183640480041  0,048622871577890595  0,2618413761907532  -0,5911709778365233  -0,21559326171875  0,008015148943662639  0,08952736421710761  0,7444329570273163  -0,8015916397789131  0,59786865234375  0,0372954388320446  0,19312027038103638  -0,6288133697961424  -1,166667138825111  6,93  75,83385000000004  8,708263317102903  -0,27135040787059433  -1,135376978284026  1,68375  167,9284234375  12,95871997681484  -0,15794756010281724  -1,365221278294494  7,76125  61,04838906250001  7,813346854101641  -0,03255791310985921  -0,6848017850522043
7  0,0222119140625  0,008982579684257504  0,0947764722083361  0,26145597124083664  -1,1124716480277557  -0,10728271484375  0,007197864359617235  0,08484022842742253  0,17937367888625164  -1,2756811094193201  0,84795166015625  0,008096158856153488  0,08997865778146219  -0,4678115581947138  -1,3260637987215491  20,199375  108,91692929687501  10,436327385477854  -0,035398747341542365  -0,6137211140316827  -19,51625  571,6130171875  23,908429835258943  -0,5647198094503648  -1,0922784151868434  -1,97625  165,23740468750003  12,854470221969478  -1,0644266814379308  -0,5577897361189827
8  0,09205322265625  0,008573486059904097  0,09259312101827057  0,5798544002946234  -1,1772633173662213  -0,090625  0,00586403608322144  0,07657699447759385  0,3944727811568381  -1,390796145126864  0,91067626953125  0,015409622973203656  0,12413550246888944  -0,16639332221895758  -1,2476159862910157  39,500625  2063,3254292968745  45,42384207986896  0,5786578412390277  -1,2246565592024936  -38,12125  420,8600640624998  20,514874215127417  1,0147262655363336  0,6106368804235265  22,66625  210,08829843749993  14,494423011541368  -0,9541781399294745  0,7887359905033615
9  0,31758544921875  0,007210160559415823  0,0849126643052485  0,2573099595864284  -1,2135736309330487  -0,12734375  0,003678508996963501  0,060650713078771804  0,16781130403213282  -0,7355923652255982  1,01309814453125  0,02427419349551201  0,15580177629126057  0,37145312318103607  -1,507401691048622  -0,821875  357,805498046875  18,915747356286904  -0,6968818091419873  -0,3893371348430912  27,810625  553,3461292968751  23,523310338829337  -0,35118414801498954  -1,1704587416924632  16,67375  155,03488906250004  12,451300697617901  -0,2765748397121229  -1,2476442881483365
10  0,288388671875  0,0016393352985382076  0,04048870581456275  -0,0234204436197715  -1,619579291427698  -0,0553173828125  0,001630127644538879  0,04037483925093546  0,136225634447503  -0,767983094664213  1,200419921875  0,0008068569660186767  0,028405227793817756  0,7431394386695641  -0,17749895343558775  -4,984375  194,430966796875  13,943850501094559  -0,22113914500267695  -0,8107347543561105  15,65625  34,1879296875  5,8470445258694586  -0,08463521677042496  -1,6344006081936655  6,225  78,42882812500002  8,856005201274446  0,27100474001056096  -1,3535560389420833
11  0,23836181640625  0,0019617331683635703  0,04429145705848443  0,11254349871023052  -1,2039837028006743  -0,143134765625  0,0033549107074737584  0,05792159103023464  -0,24456179140232695  -1,294416036294337  1,13553466796875  0,002109439820051192  0,04592863834309909  -0,05898006299895843  -1,437440902308107  -15,17875  272,7041421875001  16,51375615017674  0,1267422846817321  -0,3263612521093271  22,961875  93,46186679687509  9,667567780826523  -0,20013315614273477  -1,33999319745105  23,711875  113,36655429687498  10,64737311720008  -0,020871469169255627  -1,301032020102201
12  0,24490966796875  0,000710381716489792  0,026652987008772434  0,659810224730319  -0,8841793913224136  -0,201943359375  0,011208704376220704  0,10587116876761446  -0,7254377088700902  -0,9978058268579941  1,05220947265625  0,00989187642931938  0,09945791285422885  -0,22198815911197095  -0,5705734035278174  -8,790625  78,37346679687501  8,852879011760807  -0,5004980496840071  -0,9125003430521135  12,336875  111,97296054687496  10,581727673063362  -0,43158801474196046  -0,21468026533060192  4,475  195,41359374999985  13,97904123142928  0,04252813734643923  -1,1249993841070969
13  0,29893798828125  0,002268825024366378  0,04763218475323568  1,021814042506161  0,7042413540051236  -0,1077392578125  0,002026686072349548  0,04501873023919653  -0,6468178861413824  0,77739828161203  0,81291748046875  0,002338272684812546  0,048355689270369685  2,2490591147398042  5,344872714343365  -2,934375  49,14073242187498  7,0100451084051505  0,021865991871410386  -1,3105194387111454  14,938125  83,14230429687504  9,118240197366761  -0,44035914665939935  0,3763885773193971  8,14  27,329540625  5,2277663131589955  -0,6978269530811019  -0,922585458055091
14  0,61415283203125  0,061311692303419124  0,2476119793213146  -0,359720332263912  -1,1917076354823373  -0,297275390625  0,011305140876770021  0,10632563602805309  0,5352641542702414  -0,2852554945952419  1,72603271484375  0,08926834589838985  0,29877808804929096  -0,5334318752796788  -0,5586607356324205  13,6525  761,84580625  27,60155441727875  0,025361286718313194  -0,3095927694211964  -1,41125  4421,785482812498  66,4965072978461  -0,6401250199379354  -1,3694162688578055  -43,741875  1023,706223046875  31,99540940583313  -0,4240762652671892  -0,8676946277400113
15  -0,1821875  0,02646681442260744  0,1626862453393262  0,5794682641928943  -0,6462064036487698  -0,2370703125  0,009845579767227169  0,0992248948965287  -0,6256284232968659  -0,3350193118008091  1,3283251953125  0,008148851847648618  0,09027099117462165  0,5385469472008576  -0,07116768881742619  13,920625  1401,2071761718753  37,432701961945995  0,7188668614905537  -1,0314262329329262  17,13875  2159,5733265625004  46,47120965245579  -0,3652418766884834  -1,0006897305409028  -21,70375  511,6897359374995  22,62056002705281  -0,7293798123938404  -0,9248792345478485
16  -0,44641357421875  0,02491204320788385  0,15783549413197226  1,0972844891644586  1,7064955472892223  -0,2247900390625  0,012290960097312923  0,11086460254433299  -0,6895925925713313  -0,1976126150419013  0,90472900390625  0,0283877776324749  0,16848672835708722  0,23492736081167118  -1,2101726603082896  -44,54625  788,9527046875  28,08830191890389  0,6481416055519394  -0,6679793163115955  -41,115625  1637,120419921873  40,46134476165953  1,830675817917575  2,1478719459819127  -21,0425  647,377021875  25,443604734294233  -0,16982500091494787  -0,5818468276476034
17  -0,05946044921875  0,03710362598299982  0,19262301519548441  -0,20601676339829378  -0,9160506460579465  -0,15061767578125  0,00673607379794121  0,08207358769994894  -1,5237025231005432  1,2303885697298798  0,52139404296875  0,07974473912119871  0,2823911102021427  0,22308642608770068  -1,6650219363901086  9,559375  531,1372167968744  23,046414402177064  1,139559815825416  0,15259597135497804  -45,685  792,8956968749999  28,158403663471407  0,18673240883475256  -0,9124030477112308  -19,641875  204,23225429687503  14,29098507090659  -0,9410481776059981  -0,5991009985410334
18  0,23027587890625  0,0022854605853557587  0,04780649103788897  0,6078145167537957  -0,7113365140563919  -0,20585205078125  0,004100083178281783  0,06403189188429297  0,25877040548547875  -1,1037092986485828  0,750654296875  0,05077559456825256  0,225334406090709  0,08537611141208906  -1,4658926333699795  -3,204375  312,8767855468748  17,68832342385436  0,011750394238420846  -1,3457747769510395  7,45125  33,14309218749998  5,757003750867284  -0,7783060163769471  0,07561904003783759  3,673125  51,80045742187502  7,197253463778736  0,5869590236394878  1,117449163985106
19  0,14150390625  0,003856437206268311  0,06210021905169345  -0,7634437819207572  -0,1889395994790406  -0,205146484375  0,006288713312149045  0,07930140800861638  0,8285291579198903  -0,3456988541622361  0,84447509765625  0,012717577761411665  0,11277223843398546  -1,0607806296793298  1,0231965119175683  -1,734375  203,619169921875  14,269518909965921  0,45689898304678556  0,06499367756797447  -23,09875  167,46282656250003  12,940742890672855  -1,7009584797852344  1,4425865241863214  10,70875  29,237282812500002  5,407151080976007  0,5008928448268688  -0,24899532209803166
20  0,11341064453125  0,003727481907606126  0,06105310727232584  -0,4230650092168949  -0,779636614832393  -0,2395068359375  0,010130391097068788  0,10064984399922729  0,20522053087608147  -1,2371758316972257  0,776328125  0,048628608846664395  0,22051895348623526  -0,10869417102537084  -1,8110499569744436  27,228125  1458,4969824218742  38,190273400721736  -0,7581368381686895  -0,19025250779218617  -30,5125  232,79296875000017  15,257554481305323  0,1395866220515556  -1,2421914005537895  24,72875  28,2120484375  5,311501523816029  -0,1314849119224225  -0,7328093439579813
21  0,096796875  0,008054848289489746  0,08974880661874979  0,43175943454679183  -0,5452363658383073  -0,11461669921875  0,002573631352186203  0,05073097034540344  0,2808938921762162  -0,9462281946610656  0,8709326171875  0,0023510136842727638  0,048487252801873236  0,5369164401683735  -0,16009104244085437  41,77875  136,86792343750002  11,699056519117258  -0,7730585247537122  -0,5566183009761216  -8,108125  271,878113671875  16,488726866313087  -0,22785889090019676  -1,0235180505353372  12,59125  95,94182968749999  9,794990029984715  -0,34851420543755934  -0,9104600454482319
22  0,17132080078125  0,009857823675870894  0,09928657349244607  -0,025237327316373844  -1,380170562874686  -0,11048583984375  0,006482407301664356  0,08051339827422735  -0,8638307183976975  1,1404822613660972  1,0543896484375  0,013187517619132998  0,1148369174922986  -0,4412593693377684  -1,1107813973107001  -1,44875  599,0087796875005  24,474655864536697  -0,14850922918334578  -0,7947567685799157  18,043125  169,28052304687506  13,010784874360004  -0,30367927720484644  -1,0717699000650578  21,749375  211,5735542968749  14,545568201238304  -0,8567590537509958  0,5524122562134695
23  0,2271826171875  0,006038625741004945  0,07770859502657955  0,30823241769256376  -0,6017646943939643  -0,31530517578125  0,006200708740949633  0,0787445791210394  0,525679271142445  -0,14909289784423319  1,34718994140625  0,016242649668455126  0,12744665420659393  -0,6238353018949605  -1,2158112825157201  -26,24375  349,2585546875003  18,688460468628772  -0,46444485834412264  -0,797257892796996  66,08125  233,29707031250007  15,274065284412663  -0,11908723153443458  -1,2889661985819856  15,893125  180,80603867187511  13,446413598869965  0,48813602549897334  -1,1824432696814744
24  0,383798828125  0,0007012676239013671  0,026481458115091908  -0,8477203828245741  -0,18050132048366407  -0,3801708984375  0,005185178971290588  0,07200818683518276  1,706941416557369  2,115177993039845  1,10000244140625  0,03476368414759636  0,1864502189529322  0,7305597901775357  -0,961679983326396  -17,8275  199,04243124999994  14,108239835287744  0,6067552701623257  0,1243766415218337  -3,3925  240,99500625000007  15,524013857569184  0,7438187851103005  0,12494893614373215  4,836875  159,2781949218751  12,620546538160504  0,39369087638182665  -1,3133830019663257
25  0,33020751953125  0,0017488151252269717  0,04181883696645534  -0,4982460484202366  -1,3156496425150186  -0,18834716796875  0,008820030039548869  0,09391501498455329  -0,48332444404347186  -1,0446191547168506  0,9727978515625  0,02418636224269866  0,15551965227166198  -0,3464054446200502  -1,5512213315734134  -7,48125  442,9363671874998  21,04605348248217  -0,6724049078355566  -0,865058057912488  14,155  189,60831874999994  13,769833650048207  -0,27260544391842956  -1,1089222037735578  -10,183125  595,0200980468748  24,39303380161793  -0,4627861388665553  -1,272686648284872
26  0,4136181640625  0,00442564890384674  0,06652555075943935  0,9211550453728232  0,17621611447406726  -0,27755615234375  0,0012288375556468968  0,035054779355273326  0,3683963919931264  -1,4291032024939156  1,03046142578125  0,021891829794645313  0,1479588787286701  -0,3005628859404568  -1,0989084426645241  23,110625  71,45623867187506  8,453179205001812  -1,209895119660482  0,6441144357846369  -33,323125  287,54742617187514  16,957223421653534  0,28064257789327485  -1,0519172348585641  6,155  15,151990625000002  3,8925557960034434  -0,2478122216471889  -1,0805478892668463
27  0,4128271484375  0,040228868508338955  0,20057135515406718  -0,3332018619483363  -1,1814937775116205  -0,31171875  0,016459797620773306  0,1282957428006608  0,38657107635118876  -1,3037458521033618  1,35846923828125  0,15778558408617976  0,39722233583495753  -0,4223796965505756  -1,418139529677175  14,79125  521,4372046875001  22,834999555233193  -1,0193413361152792  -0,1431087831492186  14,13625  2017,5801078125005  44,9174810938069  -0,6966849679359944  -0,7057356091363474  -24,12125  416,2569390625001  20,402375819068233  0,6661044529925528  -0,8291913731927161
28  0,0487890625  0,002888860368728638  0,053748119676214144  1,1723672327787897  6,241393934706979  -0,28064208984375  0,005106173151731491  0,07145749192164172  0,6804258818194223  -1,0873247933614034  1,35234375  0,04378586530685425  0,20925072355156685  0,1768452226329199  -0,8066715952322512  19,943125  243,91641367187486  15,617823589472218  1,3411319710874354  3,8508510688741673  -64,854375  2599,636644921875  50,98663202175522  1,5556907294824875  2,8586224189873493  3,273125  358,561379296875  18,93571702621464  1,0220759745783454  0,8387319497225945
29  -0,05387451171875  0,04271748430132863  0,20668208510010883  -0,16052451272253881  -1,58718183678805  -0,18473388671875  0,004996205633878708  0,07068384280639181  -0,7146081300955573  -0,4748431802618702  0,80695068359375  0,03461200696825983  0,18604302450847177  -0,35991450542411957  -1,3553843773547587  -33,410625  1645,7568167968757  40,567928426244244  1,5594155737330793  1,4083416630456123  -37,655  6140,446756250001  78,36100277721056  -0,3056979202689744  -1,2405224173023186  23,4575  471,49186562500023  21,713863443086314  -0,12130218042278457  -1,746582851365862
30  0,04729736328125  0,004905160492658615  0,07003685096189445  0,7834319497253263  -0,6295347450712807  -0,16356689453125  0,042080542391538606  0,20513542451643646  0,8315170931094564  -0,8430819706194312  0,83767822265625  0,017988936489820473  0,1341228410443966  -1,6284643693767424  1,8816778099348923  -41,745  1480,0968500000004  38,47202685068724  0,6618504462816411  -1,0262353396571977  -4,30625  911,0024609374999  30,182817312794043  -1,2129947546923523  -0,06491801615080295  -35,13875  744,7226234374998  27,289606509392907  0,7773207988008524  0,5908920215548599
31  0,27750732421875  0,012556524342298515  0,1120558982932113  -0,20806924154337533  -1,7317939654388121  -0,248701171875  0,012499593353271481  0,11180158028074326  1,0023826239707074  1,3005345359394243  0,51828125  0,08229414138793946  0,2868695546549676  0,08974880394735105  -1,6618008954318448  4,0425  299,1883499999999  17,29706188923425  -1,7292690394472061  2,2866105429426664  -4,338125  682,9115699218752  26,132576794527463  -0,7787502176555282  -0,1843492874906829  5,310625  683,4408167968752  26,142701023361667  0,3690839353141116  -0,7591193621283678
32  0,29658447265625  0,007073555821180342  0,08410443401617029  -0,3908448432871052  -1,2823916302038905  -0,2832568359375  0,0027655584573745722  0,05258857725185739  0,9801008406863722  -0,08087831689217051  0,80886474609375  0,004612603062391282  0,06791614728760224  -0,6299494238583448  -0,7270466057514429  16,718125  53,53105429687505  7,316491939233928  -0,1960266911637741  -0,5742381972581678  -7,63  51,567865625  7,181076912622507  -0,9824747265577993  0,0644927937861226  3,429375  14,77036367187499  3,843223083802837  0,10369180888288619  -1,1644232021419387
33  0,09083251953125  0,003103065937757493  0,055705169757909304  -0,2601929284968465  -0,863814674443574  -0,14938720703125  0,0027727614581584924  0,05265701717870556  0,30448522812740414  -0,9344236145977853  0,6411572265625  0,015813074564933784  0,12575004797189457  0,7581842084248059  -0,9068314959323107  10,830625  310,996741796875  17,63509971043189  -0,7020318997209728  -0,7395331482929244  -49,21625  351,49472031249985  18,74819245454078  0,04954964400002958  -1,747246793873293  20,5775  212,16375937499993  14,565842213033887  1,5324250423283188  1,4247890944640167
34  0,2999267578125  0,010379042029380798  0,10187758354702373  0,5218162084431334  -1,0519253269156397  -0,2338818359375  0,008795022940635682  0,09378178362899525  0,6333820363509283  -0,9474487606539208  0,93264892578125  0,004951457566022873  0,07036659410560435  1,166739160248917  1,275654144957822  47,13  1147,6898968750002  33,877572180942956  -0,01792678222448078  -0,5986103823250155  -10,735  732,1314156249998  27,057927038577805  -0,528769440514971  -0,5226986295556273  28,158125  1370,187223046876  37,016040077875374  -0,2488191480391031  -1,1716947272454774
35  0,41368896484375  0,0011378663241863249  0,03373227422197212  -0,4835588182308546  -0,6016434202137084  -0,191455078125  0,012122402191162101  0,110101781053542  0,18523632314260596  -1,2571475403117753  1,1589892578125  0,012804054713249212  0,11315500304117893  0,5125981871322025  -1,145322914649682  38,664375  466,76559804687486  21,604758689855224  0,0814324708134793  -0,6480441418844114  73,7325  1011,4917249999992  31,803957693972603  -0,04432792381150023  -1,7452843330625507  -2,41  123,642290625  11,1194555003831  0,7137970445541154  -0,8275434392981267
36  0,48979736328125  0,007375299090147018  0,08587956153909392  -1,24809666902428  0,8944912046884079  -0,3023681640625  0,0028840917348861694  0,05370374041802088  0,5190070795806242  -0,8314015589793962  1,2549658203125  0,012341444754600526  0,11109205531720316  -0,3275919446548683  -0,23801954624925248  -4,808125  1066,261660546875  32,65366228383694  -0,6693434409094385  -0,7434609385986288  39,36375  406,2622171874999  20,155947439589635  0,40321515266504293  0,018242879573593385  -33,47625  826,3144359375001  28,745685518656536  -1,1252122724610376  0,09599818543500405
37  0,34700439453125  0,005068169897794722  0,07119108018421073  -0,36458194952840123  -0,23531416189973964  -0,13996826171875  0,009816887015104294  0,09908020496095218  0,0835220953854059  -1,2831772805493433  1,055400390625  0,022947154855728152  0,1514831834090113  -0,16485608625729065  -0,14050457893230828  -30,42125  891,3538765625005  29,85555018020101  -0,9693607023907136  0,27749295214877057  17,106875  245,83377304687514  15,679087124156021  1,2369225323653108  0,2967130927984587  -9,93125  2021,6669140624977  44,962950459934206  -0,8450648265567925  -0,8191968481286684
38  0,34091552734375  0,0005726884543895725  0,023930910020088507  0,6703905057471974  -1,015372357724761  -0,2245654296875  0,00204788134098053  0,04525352296761579  -0,26031561113951973  -1,3191351514316816  0,96616943359375  0,0033943739593028997  0,05826125607385151  0,24038158960817352  -1,091494009745361  -8,0325  40,01159999999999  6,325472314380957  -0,4011676228582582  -0,8788754725090757  0,790625  117,20549804687502  10,826148809566355  0,47559030528867685  -0,8148716491569674  -2,491875  55,25317617187499  7,433248023029703  -0,6701166865285684  -0,7555840011340367
39  0,485146484375  0,015786463880538937  0,12564419557042394  0,5318787957507387  -0,8476120901691582  -0,31038818359375  0,007458177059888844  0,08636073795359117  -0,3667565782439172  -1,2165701150207273  0,99931396484375  0,006226030224561691  0,07890519770307715  1,2928848563914126  0,9123755504949531  -0,77625  285,47259218749997  16,895934191026548  2,552259925284881  7,208256005853601  5,44625  893,6445328124996  29,893887883855115  1,2391285655402124  -0,14543274473177847  -31,608125  3046,440848046874  55,1945726321608  -1,412237507430044  0,529511991230792
40  0,44193603515625  0,017633097237348558  0,13278967293185323  0,08409051763009534  -0,8696387902593807  -0,09652587890625  0,005313782280683517  0,07289569452775325  0,5177945193836192  -0,891133418067509  1,5020068359375  0,03333416411876678  0,18257646102049074  -0,4602658109447714  -0,8225731411543693  67,42875  776,4285171874994  27,864466928105756  -1,0252406789303652  -0,4376358750372802  35,430625  757,1834292968748  27,516966208084693  0,1944125377586952  -0,7509692351305759  -84,358125  2596,1410042968746  50,95234051834002  0,4175499426978187  -0,3495401079743403
41  -0,14118896484375  0,10876892887949945  0,32980134760109675  -0,29724859126593545  -1,3339822299032122  -0,1805224609375  0,01722873589992523  0,13125827935762846  -0,12470947938078521  -0,7418868153872471  1,43081787109375  0,01774947244524956  0,1332271460523326  -0,3024601506300298  -1,1530366910299576  -40,0825  3104,434287500003  55,717450475591605  0,42514994662755784  -1,4543022182302425  -18,23375  1122,1421578124998  33,49839037644197  0,34529103849231296  -1,136783621761891  33,371875  709,429873046875  26,635124798785437  -0,18157708298752875  -1,2718201682231713
42  -0,42954345703125  0,0992592002093792  0,31505428136970176  0,8533152595415625  -0,8482637273985523  -0,0641748046875  0,1397032726049423  0,37376900969039994  1,0323324069252058  -0,14055538139094859  0,60498779296875  0,24641540700793257  0,4964024647480435  0,2111839800828807  -1,251551543061103  -46,353125  14275,87276367188  119,4816837999527  0,9275344033768186  -0,6164666337742633  -25,491875  5596,278332421876  74,80827716517656  0,31334247706105944  -1,1738292451264127  -43,62375  2742,4135140625  52,3680581467606  0,8810988417584541  -0,46222309651224736
43  0,21908203125  0,03255113663673398  0,18041933554010772  -1,8417881698539866  2,1323851663786373  -0,16330322265625  0,022645302885770772  0,15048356350701816  -0,16967539905383963  -0,3043738076995832  0,38985107421875  0,06923202044367788  0,26311978345171594  -1,0354181374182374  -0,38275876887696825  -9,8825  1197,4040843749997  34,60352705108252  -0,4817659706316542  -0,47362722602646734  -16,755625  1994,8751636718753  44,66402538589502  -1,466703179808176  1,3397183311816905  -9,236875  842,127523046875  29,019433541109567  -0,9900524047613489  -0,349229535793278
44  0,15608154296875  0,00742546760439873  0,08617115297127415  -0,38325280046060495  -1,101324400890453  -0,190693359375  0,0029505260944366445  0,05431874533194452  0,4010899279097747  -0,8123069795480236  0,79027099609375  0,001075251549482346  0,03279102849076781  -0,4662058198017833  -1,1273583583322855  12,619375  273,03391367187504  16,523737884385454  -0,24407416253565528  -1,4323044428085945  -3,65125  163,57345156249997  12,789583713416945  -0,09063752185013492  0,6929056940161238  16,235625  49,050301171875  7,003592019233773  -0,33410591731279865  -0,9014776112824117
45  0,0033203125  0,01561444044113159  0,1249577546258398  0,11504462055363385  -1,1552713425821217  -0,1506201171875  0,004820914053916932  0,0694328024345621  -0,3920162382134722  -0,4991205335483677  0,66841552734375  0,033822487658262235  0,18390891130737042  -0,06378870584111468  -1,3788836881849549  65,0375  694,6140625000002  26,35553191457156  1,0381419189066623  -0,3738645030664429  -29,82625  2685,478404687498  51,8216017186607  0,3186777256633675  -1,5239975284415335  29,94625  234,88773593749985  15,32604762936289  -0,15699258437111696  -0,5745684448957942
46  0,1417822265625  0,010041677498817448  0,10020817081863857  0,09791775367097838  -0,5875094968533263  -0,025458984375  0,01127483377456665  0,10618302018009589  1,2351764727597938  0,5958490666957847  1,1856787109375  0,02809436252117156  0,16761373010935457  -0,0669359622003332  -1,4111688620996696  19,5825  1366,7012406249996  36,96892263273302  0,10751186742541187  -0,8993402080866262  -6,340625  310,1406542968751  17,610810722305633  0,05202214164782198  -0,7169160625478663  14,419375  910,7987730468751  30,17944288827869  -0,13201851692974478  -0,6678204866520141
47  0,33711181640625  0,005194353693723677  0,07207186478594596  -0,17311020038017974  0,35601270241772065  -0,30442138671875  0,007190220469236369  0,08479516772338132  -0,08077096647385254  -1,2794084656937588  1,3432177734375  0,011186316466331479  0,10576538406459592  1,0447817676909572  -0,10389438910885351  -33,385625  365,81148867187517  19,12619901265997  0,3190956138206013  -1,1572975233721292  60,825625  602,0738511718752  24,53719322114645  0,563729047770544  -0,9964389426847231  28,59  584,0901812499999  24,16795773850161  -0,6128918478339186  -0,804896279140574
48  0,3413818359375  0,02256769120693206  0,15022546790385463  -0,41181917140041613  -1,196722829467159  -0,40597900390625  0,009972860687971112  0,09986421124692826  -0,05980948054093418  -1,3179424060072724  1,1675244140625  0,007765580868721002  0,08812253326318417  0,9491544350421803  1,6040006482189613  -15,6075  88,90711562499997  9,429056984926964  -0,472237982066267  -0,5908964094610925  54,50875  1476,3660171874994  38,42350865274408  -0,6160641864025763  -0,20403314521825955  -19,27625  988,6170453125003  31,442281172213004  -0,26643550309876723  -1,4140942633521105
49  0,18152099609375  0,0012922829329967507  0,03594833699904282  1,0605386396634826  0,6075012534757844  -0,1398974609375  0,0063413452863693275  0,0796325642332917  -0,19240205135878108  -1,0168744333262494  0,89550048828125  0,008336514776945117  0,09130451673901525  1,3639346660688663  1,5557940741553749  -21,128125  288,7747949218751  16,993375030342712  0,4287556700672137  -0,6025522523869999  -4,195625  741,1473949218749  27,22402238688976  -0,05987843954220342  -1,181374838370246  16,71125  96,27201406250003  9,811830311542288  -0,34438761847783095  -0,7378699964378215
50  0,25817138671875  0,004458869045972826  0,06677476354112252  0,4546366697669037  -0,3779570710397868  -0,219423828125  0,0024865497589111325  0,04986531619182949  0,46543122095771056  -1,362396345138289  1,00920166015625  0,003984444969892502  0,06312246010646688  -0,15790150318554877  -1,7049997583346892  14,685625  170,59933242187498  13,061367938385128  -0,8612311008966406  -0,653301170051634  5,9275  256,8339625  16,026040137850647  -0,30136076305420845  -1,0332125722695042  6,88625  35,909404687499986  5,992445634922355  -0,35694287988187295  -1,244570516997349
51  0,563916015625  0,006153914928436279  0,07844689240777024  0,03656326003284474  -1,5043005303236725  -0,57099853515625  0,05290436589121821  0,23000949087204686  -0,36758107183869343  -1,3085488980847997  1,3198095703125  0,039506982350349426  0,19876363437598293  0,43169817613039047  -1,4144987222725482  11,635625  362,7031292968745  19,044766454248645  -0,41610846349919894  -1,2291024414315388  -49,2625  466,1380468750002  21,590230357154603  -0,6371556192968452  -0,6781685864536158  -8,67375  1006,5679359375004  31,726454827753766  -0,5469374063855862  -0,9973906359854219
52  0,031884765625  0,08774036169052123  0,29620999593282  -0,22950159970673106  -1,1288817832345774  -0,24490478515625  0,01368708927035332  0,11699183420373116  0,044726461915767256  -1,5179477514985704  1,4498388671875  0,00556758930683136  0,07461628044087537  0,3917087267950356  -1,2876440752470808  12,584375  619,2481542968749  24,884697191183076  0,36068113314159805  -1,2038231801483377  -2,224375  3536,7933667968755  59,47094556837713  -0,19791693708573185  -1,5165731693564544  -12,224375  118,40336679687499  10,88133111328182  0,8742559293860386  -0,10804850559512236
53  -0,4656494140625  0,030369043946266164  0,17426716255871663  0,06033087629440481  -1,1119445206793126  -0,15163330078125  0,008804105633497239  0,09383019574474541  0,6510275404558886  -0,8097029190194931  0,8192822265625  0,07833989570140838  0,279892650316882  0,49300541950767374  -0,8567596839323226  -33,33375  970,4578296875001  31,15217215038945  0,42606593184178526  -0,577133323922796  -14,575625  6169,624476171868  78,54695714139325  1,1825299806768037  0,1366967436670623  2,905  378,01214687500004  19,442534476631383  0,8598549960481793  -0,022570334737998188
54  -0,00932861328125  0,0058815876185894025  0,07669150942959332  -0,37897135837030715  -1,1650487928977398  -0,18907958984375  0,001931063479185105  0,043943867367189075  0,5729683534233716  -1,077863946095237  0,4720068359375  0,0017980864286422716  0,04240384921964363  -0,9170201141347626  -0,20043937285682478  -15,3125  150,068046875  12,250226400969085  0,42401944007284653  -0,879142327562155  -30,019375  384,76435117187515  19,615411063036003  -0,48365485256828794  -0,42455313738061484  -10,909375  44,069326171874984  6,6384731807754545  -0,47608636304111684  -1,2316884699603023
55  0,1095849609375  0,0005725801229476924  0,02392864649217946  -0,08392492651467454  -0,8661872098793411  -0,2558203125  0,0021835061550140376  0,046728001829888226  0,02873063582060611  -1,4360391651508495  0,7144189453125  0,010807493472099297  0,10395909518699793  -0,4789398833946892  -1,271925423786004  13,09125  125,18370468749995  11,188552394635328  -1,0014490249759935  0,21008332764284798  8,933125  52,52486367187502  7,24740392636391  -0,010241886810294087  -1,2447198171176805  3,74625  109,73615781250001  10,47550274748186  1,173004329747565  0,7401272435784012
56  -0,03992431640625  0,0022357338130474086  0,047283546959247975  0,11893408433348254  -1,0956018321410375  -0,285634765625  0,004561353826522829  0,06753779554088828  -0,9906452555535208  -0,2612181761252912  0,9109716796875  0,001461568140983583  0,03823046090467107  -0,9125878601004445  0,07529510078890755  23,85375  190,27282968749986  13,793941774833613  -0,6468373771753395  -0,25722960407086903  -14,3075  41,457162499999995  6,438723670107298  -0,29440914148872666  -0,865568774932286  9,95375  174,7830953125  13,220555786823033  -0,34578299446468197  -0,29171570005433356
57  0,17738525390625  0,009983028477430347  0,0999151063524948  0,3073862372396205  -1,1214996755739022  -0,0775  0,015174538278579714  0,12318497586385978  0,6768913943548769  -0,1036218723750153  0,99449462890625  0,014548184126615531  0,12061585354593952  0,9521052699884098  -0,2665759950245419  45,2125  494,65132812499985  22,240758263265214  0,47200656784421396  -0,6455972401064485  -10,15375  233,40745468750006  15,277678314701486  0,10283331088293517  -1,4111640087150163  -32,043125  73,34552304687497  8,564200082136976  0,47015350149255175  -0,5619881036735292
58  0,1926123046875  0,0013857279062271125  0,0372253664350952  -0,5042958274404481  -0,43236181441047616  0,0657666015625  0,0029530510663986205  0,05434198254019281  -0,2685712189403956  -1,2617427355764033  0,95579833984375  0,005601124018430706  0,07484065752270423  1,1200423435473925  -0,19491536704190304  28,954375  317,97772304687527  17,831929874438025  0,9286993499502082  -0,3203230200292113  16,9275  531,84630625  23,06179321410198  0,0921737099635016  -1,3359464870635207  -8,666875  93,831098046875  9,686645345364669  0,4674949124698127  -0,9334776698941356
59  0,05613037109375  0,0020843721568584456  0,04565492478209164  -0,3698446263255785  -1,517562120835823  -1,220703125e-05  0,0008505122363567345  0,02916354293217363  0,790689803725031  -0,11805325884616025  1,17036376953125  0,012881151074171067  0,11349515881380609  -0,08206228082437293  -1,3741981878775413  12,04875  96,8506703125  9,841273815543392  -0,4277463349482201  -1,2496560223110291  59,12  238,42919375000008  15,441152604323296  -0,2864845049339653  -1,0572145420778645  -3,310625  41,14386367187499  6,414348265558629  0,7459667944807742  -0,3159619788911887
60  -0,011435546875  0,0009272631645202636  0,030450996117044573  0,6233988012152837  -0,6443840573320183  -0,07711181640625  0,007174828499555581  0,08470435938932294  0,2596697565005018  -0,3768222534138501  1,2051708984375  0,012263587450981144  0,1107410829411612  -0,06699593490433374  -1,031930576077978  -36,263125  179,81666367187495  13,409573582775664  1,0249772153194179  0,3364760683296395  18,825  95,58273437500002  9,776642285314525  0,3013255978903753  -1,0137223448714736  7,595  147,58628749999997  12,148509682261441  -0,010464917827116794  -0,2845468246796492
61  0,127451171875  0,005369765663146973  0,07327868491687725  -0,41626366256402597  -0,7759233032508197  -0,0903076171875  0,0020769137144088737  0,045573168799293226  -0,15271139853762913  -0,21027246383687404  1,047470703125  0,004919157409667971  0,07013670515263724  0,6661647939677497  -1,0857203765319838  -23,014375  225,83069179687496  15,027664216267109  -0,4080905540157338  -1,079926897320168  -19,498125  368,3306605468749  19,191942594403386  1,0441774326395037  0,33257956260069665  -8,77  211,40342812500006  14,539718983701166  -0,6425284047033871  -0,6642266138262305
62  0,37408447265625  0,004990040510892868  0,07064021879137174  -0,01829662881893252  -1,5329516749384953  -0,1795166015625  0,00035269320011138916  0,018780127798057957  -0,7110895051039334  0,03474404092001171  1,14480224609375  0,01050899969935417  0,10251341229007144  0,19392872999089522  -1,3009808983273663  -15,3225  183,66724375  13,552388857688522  -0,17033247566024276  -1,217132940637083  3,04  904,6685562499999  30,077708626988194  -0,061972525517536556  -1,5187377174831704  8,8875  145,21312499999993  12,050440863304543  -0,7837995358800829  -0,9818348016761944
63  0,245439453125  0,0034638534545898447  0,05885451091114295  0,336436446411181  -1,425546276880301  -0,1291845703125  0,0029352343320846546  0,05417780294626808  -0,14519393510325712  -1,2188655451364805  1,02443359375  0,0029172464370727513  0,05401153985096843  0,4148990837549712  -1,052311011733087  18,01  183,68755625000003  13,553138243595098  0,3640848553048775  -1,3568429950491807  0,494375  619,7778980468751  24,895338881944852  1,182904795933325  0,2094038444509394  -5,46875  106,3012890625  10,310251648844465  -0,661901923933526  -0,14179742365021974
64  0,1756884765625  0,004327857232093811  0,06578645173661375  0,08028339069661908  -0,8632922663994349  -0,0209521484375  0,0006633715391159056  0,025756000060488927  1,2354510532296472  1,135433018326597  1,316787109375  0,014057779693603514  0,11856550802659058  -0,9135972870134109  -0,752617423513712  52,82  40,632678125000005  6,374376685214014  -0,6740311608879386  -0,7641143604381817  31,060625  1263,238004296875  35,54205965186704  -0,10741340782448347  -1,440450185387507  -23,0125  284,711328125  16,87339112700823  0,6173252997567539  -0,21578999845760638
65  -0,131650390625  0,020888254785537706  0,14452769556572093  -0,26823620332577885  -1,4591487461205375  -0,044638671875  0,000909282827377319  0,030154316894556225  1,035056787626672  0,5737694911304234  1,4268603515625  0,003226496195793151  0,05680225519988754  -1,2250312043476963  0,8456822467344569  -7,28  755,3776937499997  27,48413531021123  -0,5197783619500906  -0,27170349569665353  -44,76  41,60325937499998  6,450058866010448  -0,4122573519992446  0,000993510459726732  19,29375  47,8034765625  6,914005826038911  -0,3018502548342934  -0,07830207987731042
66  -0,3303271484375  0,009648900008201596  0,09822881455154386  1,9426210813683102  5,372986021242378  -0,02202392578125  0,002844640368223189  0,05333517008713096  0,6451506256531732  -0,9841972636590985  1,047490234375  0,017683233594894418  0,13297832001831883  -0,8686259856166525  0,5414916494658666  -39,268125  466,2976011718749  21,59392509878357  -0,44647755020390534  -1,0465111879781765  -55,446875  1163,075498046875  34,10389271105096  1,2046077551844065  0,17073372285289112  -10,549375  27,726663671874988  5,265611424314843  0,018045644766847602  -0,7471224766389168
67  -0,01258544921875  0,017222269028425212  0,13123364289855408  -0,5284536525380978  -1,119374030717287  -0,122197265625  0,0016346889495849613  0,040431286766376376  -0,36211847835376143  -1,3641611795929287  0,5896484375  0,0059443819522857645  0,07709981810799403  1,08230409938975  0,18799610706916248  -38,344375  102,41824179687497  10,120189810318529  0,18473904571631627  -0,9289389850177954  -45,53875  838,1946703124999  28,95159184418881  -0,14468777720900372  -1,2112701659771097  -5,419375  49,807132421875  7,057416837758345  0,41213854321936677  -1,2559950846487904
68  0,25335693359375  0,0029570893943309784  0,05437912645796159  -0,08154876729047902  -0,8499637097315005  -0,20941650390625  0,0033003554999828334  0,05744872061223673  -0,020441007110822505  -0,9736719987511786  0,70373291015625  0,016236377352476117  0,12742204421714523  0,6229242550212262  -0,9863184426084244  -1,24625  122,92404843750006  11,087111816767253  -0,2951131921902178  -1,229995378352069  8,309375  74,00448242187498  8,602585798576785  -0,21904652865412205  -1,481430392925035  5,3625  17,355  4,16593326878864  -0,7519377491914874  -0,89816219474121
69  0,22819580078125  0,001159692639112473  0,03405426021972101  -0,1020460406409601  -1,410616086005509  -0,21061279296875  0,0007250953376293183  0,026927594352806904  0,21874239579284643  -0,7206144384116717  0,94751953125  0,0031700884342193616  0,056303538380987755  -1,2124786308522668  0,22218565430548853  12,38625  1,9713578125000006  1,4040505021187808  0,06514216087681374  -0,7673684201458384  0,22625  40,2367796875  6,34324677807036  0,03070859890435386  -1,137860512136757  0,361875  6,788616796874997  2,6054974183205397  0,5517146397573485  -0,4693456612683269
70  0,15363037109375  0,00027553779482841496  0,016599331156056107  0,8538403727611532  -0,08997427381346501  -0,142392578125  0,0008337797164916996  0,02887524400748329  -0,42257176451994805  -0,6256171139036169  0,8715966796875  0,0041917762994766235  0,06474392866884604  0,42787955763449176  -1,4402077599291192  27,383125  24,503723046875  4,950123538546791  -0,38471109707900353  -1,0976081614061102  9,221875  78,66627929687496  8,8694012930341  -0,008042000494588789  -1,5944614195554874  -2,111875  9,695491796875  3,1137584679732306  0,4298474049024575  -0,976370670141689
71  0,12373046875  0,00041563391685485814  0,020387101727682093  -0,1549255073636919  -0,6894002031708539  -0,066884765625  0,0009514271259307863  0,030845212366440052  0,2017980662823298  -0,9845743823909157  0,97537353515625  0,00025287825465202326  0,01590214622785312  -0,17229962966936863  -0,01082581235760749  23,288125  67,00546054687503  8,185686321065267  -0,09012256463576687  -0,9653690174864993  15,059375  4,793544921875002  2,1894165711154656  -0,6657717378504939  -0,8585791138988883  3,26625  10,6495015625  3,263357406491051  -0,45479723824435747  -0,8543895520784202
72  0,07108154296875  0,004902160614728927  0,07001543126146498  -0,3704429682303153  -0,71707471207481  0,03161865234375  0,014912298315763477  0,1221159216308974  0,9823597733470752  -0,6192398949810785  1,0081591796875  0,0014600147962570192  0,03821013996646727  1,0600008398566025  0,9884516730968667  26,69625  74,47937656249997  8,63014348446768  0,5316083462637295  -0,7178172885662049  21,218125  45,40613242187499  6,738407261502899  0,9787668367562514  -0,17699709319777757  -19,82125  418,5589859375  20,458714180942554  -0,726785614144121  -0,8462846888842543
73  0,070048828125  0,0005340786933898929  0,02311014265187242  -0,7740586852294296  -0,13988859276048693  0,0786376953125  0,006319714188575743  0,07949663004540346  -0,18849666592242054  -1,1827061542116288  1,03677978515625  0,0027504639327526085  0,052444865647197615  -0,18371260791612865  -1,2084867535503885  15,615  61,080290625  7,815388066180719  -0,5529077255326011  -1,1270029374396027  24,52  136,11538124999987  11,666849671183728  -0,4692187545839027  -0,8185809033158709  5,660625  254,22580117187508  15,944459889625458  0,2380703860148677  -1,295512576881441
74  -0,0494287109375  0,003182101750373841  0,05641012099237016  0,6353499591816688  -0,030668645410882878  -0,02708251953125  0,005249029701948168  0,07245018772886767  -0,32489549602276663  -1,293417949379494  1,2214208984375  0,006688354992866516  0,08178236358082662  0,16594223385222856  -1,7680560110544974  -33,886875  458,54997617187496  21,413780053317886  -0,34447037090843713  -1,0943108199192286  22,32875  163,04864218749995  12,769050167788517  -0,00998485203125893  -0,6077181651732952  31,59375  282,9401171875  16,820823915239703  0,2701156014538297  -1,19708312171177
75  0,05361328125  0,014049140214920047  0,11852906907134657  -0,07848564598607759  -1,5026924289532428  -0,1768896484375  0,002522370123863219  0,05022320304264971  -0,150366526128232  -0,9750341454041349  1,2330517578125  0,011918168282508851  0,10917036357230313  0,7610493849562672  -0,8656257893175061  -39,5325  306,163475  17,497527682504177  -0,1801877456485528  -1,635279400413005  18,47375  242,80110781250008  15,582076492319631  -0,013943121653505518  -1,0234451388107317  36,12375  472,65749843749984  21,7406876256824  0,34519009099131354  -1,40885272871215
76  0,19783447265625  0,00391810900568962  0,06259480014897101  -0,956913467156625  -0,12015034950654613  -0,162001953125  0,004339870595932008  0,0658776942214283  0,3999347176860243  -1,2085197306062747  0,99694091796875  0,0033069711387157434  0,0575062704295431  -0,5626869449853615  -0,5923008259283669  -15,10375  43,6897046875  6,609818808976536  -0,36514879455316324  -1,0890238086024087  -0,434375  124,48073242187498  11,157093367982316  -0,49334741873073795  -0,934960653432217  -7,630625  377,1928199218752  19,421452569822762  0,5290960638030142  -1,1072906558333933
77  0,07579833984375  0,009892380779981615  0,09946044831983021  0,86962968101943  -0,9082743362867558  -0,15232177734375  0,001135186070203781  0,0336925224672149  -0,16021925554104036  -0,9867369407071904  0,92912841796875  0,002592665308713913  0,05091822177486084  1,5864347118836586  2,7669987400412923  9,276875  185,387754296875  13,615717178939748  -0,570799684007939  -0,03454723316637054  2,665  28,819259374999987  5,368357232431537  0,4134900667436022  0,30685559976464916  11,465  44,16080625000001  6,6453597532413555  0,7787204904307619  -0,7590345402421432
78  0,20815185546875  0,0059406830012798326  0,07707582630941968  -0,7629420044340033  -0,9115280738082259  -0,3296923828125  0,0013000049352645871  0,03605558119438081  0,2035621057647477  0,2200337338729983  1,40286865234375  0,005027353018522263  0,07090382936430346  -2,286158247138064  5,085165790669327  21,835625  214,52348867187501  14,646620383961448  -0,3214878359403645  -1,54073097397296  -19,3125  476,259375  21,823367636549587  0,6082182235382217  -0,70030132336271  -17,649375  376,6939761718749  19,408605724571636  0,7526469510519888  -0,5374739155125035
79  -0,35663330078125  0,04568602067828181  0,21374288450912657  0,7163643668350268  -1,0742192482943755  -0,19987548828125  0,006237057083845136  0,07897504089169652  0,42031899370743153  -0,8022699193364753  1,3500439453125  0,009215499854087827  0,09599739503803124  -0,7058371819386158  -0,5711352921777348  -33,59875  558,4896234375002  23,632385056051795  0,44933191854617865  -1,221136824730195  23,201875  3526,222176171876  59,38200212330228  -0,06110378052852956  -1,1781328691508302  -2,145625  285,15141054687496  16,886426814068006  -0,6312760481800839  -1,0225610106644976
80  -0,32310791015625  0,0150392584502697  0,12263465436111319  0,008497562864331619  0,09193597725868274  -0,2127880859375  0,0026071634054183972  0,051060389789134956  0,09384598893825823  -0,8782753458013075  0,84248291015625  0,0504913076102734  0,22470270939682369  -0,2003394384150388  -0,2651327915123809  3,408125  410,26972304687484  20,255115972190207  1,1476976257892442  0,3471573251887774  -47,40375  1282,8622203125  35,817066048358846  -0,029551552204288945  -1,554267084304939  -29,05125  75,87948281250002  8,71088300991926  0,6202155483313424  -0,6017576705412262
81  -0,104921875  0,006217396402359009  0,07885046862485352  0,18587939554568403  -1,2767460476833665  -0,21158203125  0,003035694980621337  0,05509714131079159  -0,2573485978595363  -1,0212297454654906  0,84588623046875  0,028624169081449508  0,16918678754988378  -0,2865810226166213  -1,0741213192477743  -40,83125  658,1456640625  25,65434980782986  -1,5701017001148627  1,8482564015646217  -32,0025  374,50202499999995  19,35205480045982  0,8911243984851246  -0,5812712307608447  -43,99625  122,77701718749995  11,080479104601025  0,8289940125129898  -0,9147309009048081
82  0,04454833984375  0,004041164463758471  0,06357015387552928  -0,027210636350601235  -1,3013998669163505  -0,2224462890625  0,012698094868659977  0,11268582372534701  0,1564879316599149  -1,4034253146030657  0,692666015625  0,02586491551399231  0,16082573026102603  -0,21038298265812494  -1,5186166078474779  -30,985  2405,0506343749976  49,04131558568752  -0,8097937400433962  -0,787214987023185  22,655625  359,1080855468751  18,95014737533392  -0,40642792047894283  -0,5637157366169809  -15,03625  657,5905609375  25,643528636626822  0,3888783017897391  -1,5030973606794342
83  0,1162939453125  0,0010102882623672484  0,03178503204917762  0,16809105357519785  -0,5797524022799152  -0,3910302734375  0,002700994277000428  0,05197109078132215  -0,7235859624295511  -0,933845952592629  0,87385986328125  0,006629165476560593  0,08141968727869564  -0,3153311768219653  -0,9463659313736112  12,753125  130,64776367187508  11,43012526929933  -1,354279442026779  0,8772411370373279  -3,779375  34,947066796875035  5,9116044181656  -0,9377133198925518  0,03027327536878932  9,3275  57,658056250000016  7,593290212417804  0,3129103189509275  -1,2783584808706558
84  0,08032470703125  0,0002576714694499969  0,016052148437202943  -0,6006407955308163  -0,8595905369392836  -0,29504150390625  0,003753433817625046  0,06126527415775633  0,4077705672243894  -1,2065912453467071  0,86110107421875  0,008759706324338912  0,09359330277503253  -1,096734349456036  0,3593179240161839  12,76  176,05208750000003  13,268462137715886  -0,9471722336509211  0,26850238267005677  -14,44375  25,50222656249999  5,0499729269076274  -0,5637474790831611  -0,4205061029242825  12,65875  43,8961265625  6,6254151992535535  1,0942304520650146  -0,2680739004623929
85  -0,02894287109375  0,006774629801511769  0,08230813933938592  -0,021522483528040322  -1,2631545488200762  -0,255712890625  0,0024527692794799804  0,049525440729790385  0,3671657698695724  -1,4821366726371938  0,8176416015625  0,00706115462779999  0,08403067670678363  -0,608509248552593  -0,7950988580972553  16,298125  192,10420742187492  13,860166211913727  -1,156335053676603  0,13859840410070934  15,2225  101,72150937500001  10,085708174193819  -1,0695816059505403  -0,0623508298233757  19,603125  83,047294921875  9,11302885553837  0,35454332077241524  -0,5215972854467177
86  -0,18246337890625  0,0042113133132457735  0,06489463239163755  -0,1216364224113387  -0,3964048775485556  -0,1147021484375  0,0090569274187088  0,09516789069170757  0,08937732333738449  -1,0264047683410553  0,77958740234375  0,004124793642759323  0,06422455638429372  -0,2402936630819337  -0,9299485462982893  -14,138125  2475,847679296874  49,757890623466686  -0,32395382184281946  -1,3363581951143395  -23,675625  102,49708554687498  10,12408443005465  -0,14134468298449934  -1,2270914630703307  39,22  382,26527187500005  19,55160535288599  -1,1441643637858607  0,8966622485318334
87  -0,16945068359375  0,0071577838122844715  0,0846036867535007  0,053743045500863486  -1,306854003404757  -0,4509814453125  0,0063527960538864135  0,0797044293241374  -0,8554857463612309  0,867570948337089  0,99872802734375  0,00921939765810967  0,09601769450528204  -0,5951361824449609  -0,8621474145741206  -3,13875  1138,3940296875  33,74009528272705  -0,7369752648049509  -0,8737192781622873  10,223125  530,6144730468751  23,03507050232048  0,19531834440094745  -1,3749893509132138  56,81625  173,59748593749995  13,175639868237898  0,4024693284043599  -0,7646266470652301
88  -0,157080078125  0,01258087158203125  0,11216448449500961  0,1655518976615658  -1,0079695335610035  -0,50676025390625  0,006556955212354665  0,08097502832574166  -1,0149131749665665  0,1929954624452006  1,21038818359375  0,02135260507464409  0,14612530607202878  0,27166357388677076  -0,8292184379205323  21,7875  1651,4364843749988  40,637870076752286  0,19680942544131025  -0,40549131820613926  63,95875  450,08697031250006  21,215253246485183  -0,5049256703874887  -0,5095235525733677  1,71125  123,7258421875  11,123211864722348  0,011412449692899352  -0,6447254104333009
89  -0,09708251953125  0,002925847023725509  0,05409109930224666  -0,20901282566165758  0,10156420201805672  -0,412822265625  0,007965448713302611  0,08924936253723391  -0,33824772443966605  -1,1992611837617857  1,123564453125  0,038115767574310316  0,19523259864661516  0,2691584446690772  -1,085572037362266  4,451875  185,27014492187473  13,611397610894876  -0,43221418599968975  -0,6025064504820423  -7,01625  1156,1212984374995  34,00178375376062  0,5300479292429623  -0,9773315156806395  -4,26875  220,14089843749997  14,83714589931298  -0,5122753429236905  -0,7541138801734855
90  -0,04072998046875  0,0007630444228649138  0,027623258730007108  -0,0995023771451176  -1,0722196190467437  -0,37408935546875  0,001960234469175339  0,044274535222578446  0,2185274941688821  -0,8844142142253237  0,9177392578125  0,011543822073936458  0,10744218014325872  0,7783795251245058  -0,9281031348592594  -25,371875  570,8676074218746  23,89283590162278  -0,4329847231452803  -1,0106996583183516  43,02  848,5656156250006  29,130149598397203  -0,0778528681829119  -1,2358095872160688  -5,705  40,366724999999995  6,353481329161202  2,832058848964173  8,787525649273116
91  -0,074443359375  0,0005640073776245119  0,023748839500584273  0,9128571594893592  1,7356011840682086  -0,40736083984375  0,0036550371348857908  0,060456903120204485  -0,4185166645273856  -0,6079784248972442  1,12470947265625  0,0029763957202434553  0,05455635361938566  0,5483128680555739  -0,5584959652608581  19,179375  894,2574730468749  29,904138058918782  -0,9498597573451969  -0,4900725747739756  -11,8075  727,6932562500004  26,975790187684964  -0,07033833550408237  -0,8581048302942906  -10,7425  408,90744375  20,221459980674  0,6974069573950483  -0,39718080730826566
92  0,12388671875  0,00811218419075012  0,09006766451257699  -0,19311696307113208  -1,2915043225870733  -0,48045166015625  0,012134998148679738  0,11015896762715116  -0,48479413198831695  -1,1508744790692846  1,26161865234375  0,020638245457410793  0,1436601735256184  -0,5068880870578438  -1,2004938068750548  32,436875  167,47660117187502  12,941275098377092  0,16695479241573097  -1,129385893558232  -63,166875  320,6819574218749  17,907594964759365  -0,4122271769843838  -1,096044870337671  -43,84625  505,01245468750017  22,472482165695453  -0,2998407676117689  -1,4030896803900383
93  -0,06857666015625  0,000631555193662644  0,025130761899764282  0,8822379338403862  -0,30079867824767037  -0,3298779296875  0,0009654168844223014  0,03107115840168019  -0,22599719438330781  -1,5538698100065373  1,2275830078125  0,001179720616340637  0,03434706124751631  -0,6355234810663111  -0,5553685247228479  13,25125  177,53367031249996  13,324176158866257  -0,19623356268400427  -1,4749428393296178  -48,12375  650,5667171875004  25,50620938492234  -0,46669097571449075  -1,1175619166667339  -20,055625  103,77530429687489  10,187016457082755  -0,11347992971361594  -0,9009107109292862
94  -0,1622021484375  0,013855181670188899  0,11770803570780076  1,2681786205422982  3,404566776236142  -0,1836328125  0,004253513479232786  0,06521896564062317  -0,0779709433920088  -1,4264075785408694  1,10478271484375  0,021014622086286554  0,14496420967358306  -0,7001037417097893  -0,622769610926774  0,950625  754,3043199218743  27,464601215416806  -0,01570871964889811  -0,5592508465665391  -21,924375  2355,4725230468753  48,5332105165821  0,5176282334051084  -0,48667613326020076  -11,063125  188,96417929687505  13,746424236756082  0,03823261822120403  -1,3743048128639486
95  -0,0797314453125  0,0031292202234268185  0,05593943352794001  -0,3601084675064636  -0,6772177873877672  -0,16002197265625  0,005873953551053996  0,07664172199953492  -0,5969680023149422  -0,8434126693619479  0,78167236328125  0,015476982420682904  0,12440652081254785  -0,83590821811846  -0,732619198330422  -26,10625  495,9735546874995  22,270463728613723  0,54625293280706  -0,9788803413766307  -32,95875  112,08165781250004  10,586862510323822  -1,7562134518344934  3,003789635281959  -13,188125  309,51433554687515  17,593019511922197  1,0568706783302562  -0,20241499917690575
96  0,13838623046875  0,004626866644620895  0,06802107500342004  -0,23736718755045869  -1,524482633245145  -0,168466796875  0,00245122423171997  0,04950983974645818  -0,5247580720019281  -0,9902274328576723  0,59364990234375  0,013468757981061934  0,11605497826918902  0,18948442542087834  -1,1442871938522705  -6,914375  160,90825429687496  12,684961738092667  -0,09914492037159896  -1,3857498015718799  3,713125  134,1304761718751  11,581471243839234  -1,3078075649658703  0,4598616765666037  -12,5475  128,98477500000007  11,35714642857087  0,12736501356249463  -1,5617067823317532
97  0,23359375  0,0001705753803253174  0,013060451000073366  -0,591046524127515  0,12511533425806753  -0,26973388671875  0,0009828019797801972  0,0313496727220588  0,3706377355590052  -0,462348423888856  0,91234619140625  0,0020550816714763644  0,045333008630316654  0,08992662535049491  -0,30277017931904027  10,508125  21,395598046874998  4,625537595444988  0,3996621377712744  -1,2151349858988758  1,7725  14,470196875000008  3,803971197971931  -0,7427901839315098  -0,6225827515074198  5,28625  21,37134218750001  4,622914901606995  0,4733582608052026  -0,8393885267330394
98  0,1401611328125  0,00284853160381317  0,053371636697905095  -0,6489733959178245  -0,8135013204680619  -0,215673828125  0,0005693042278289796  0,023860096978616404  -0,3501436670328191  -1,020595762474421  0,79135009765625  0,01582206923365592  0,1257858069642832  0,009223849025047425  -1,5727881570279352  6,116875  26,56270742187499  5,153902154860431  -0,28224928791152437  -1,0513679238450102  -5,584375  16,779326171874995  4,096257581241076  -0,3208249188416196  -0,6903150329242864  18,863125  73,40255429687498  8,567529066007012  -0,039405224594611744  -1,3114463751340932
99  -0,0843212890625  0,004879798626899722  0,06985555544765013  0,10544275639697871  -0,9802297655093524  -0,06365234375  0,0076764727592468305  0,08761548241747477  -0,716875920175297  -0,9391367892294413  0,81064453125  0,0044189798831939684  0,06647540810851761  -0,22129333683982105  -0,8161167664638151  18,324375  185,54896054687498  13,621635751512187  0,13190427299804788  -1,3090350201598746  -39,029375  628,371832421875  25,067345938927698  0,40274427150034403  -1,1384175890793664  39,96  399,70183750000024  19,992544547905858  0,4511467559010798  -1,0043428265362229
100  0,0722509765625  0,007011453890800474  0,08373442476544801  -0,25572148131392325  -1,303243680116911  -0,2381494140625  0,0037384848833084093  0,061143150747311095  -0,5448707296658584  -0,4036144957707952  0,978876953125  0,015164161300659175  0,1231428491657521  -0,042626186753816825  -1,152616143120353  56,743125  879,0773355468746  29,649238363689456  0,5661585303174551  -0,4370509574187533  -11,281875  128,44105429687485  11,333183767012466  -0,17869429312564333  -1,116444308436797  23,998125  276,9358167968749  16,641388667922968  0,10924115169900116  0,02314970128399052
101  0,29090576171875  0,012704623192548756  0,11271478692943866  0,6965376091223532  -0,42637061300057866  -0,08455322265625  0,009545105761289599  0,0976990571156631  -0,026066504366692583  -0,5757948764919436  1,2976953125  0,08420246424674988  0,2901766087174324  0,562608211093899  -0,8280775658726625  -21,478125  1535,4901074218742  39,18533025791507  0,11808356004513364  -1,0368785595362282  55,10625  1823,9216796875003  42,70739607711409  -1,061939869644899  -0,4760953341572103  5,515625  118,003701171875  10,862950850108593  0,8933795315551094  -0,6425436210462903
102  0,3038037109375  0,011410102581977834  0,10681808171830195  0,6284142565800921  -1,16849115565309  -0,26407470703125  0,003810162991285324  0,061726517731727944  0,18035149198330652  -0,9212648077334911  1,2825146484375  0,056732993578910866  0,23818688792398054  1,5650146883829263  1,0626565836961284  21,178125  194,79612304687492  13,956938168770217  -0,41302830803412877  -0,036631360616670605  36,49625  372,51623593750037  19,300679675532166  -0,4575041098825982  -1,0037759282302734  -9,8425  609,5552718749999  24,68917317114933  -0,7201835105004574  -0,9469708402809318
103  0,4220751953125  0,029144449687004095  0,17071745571851782  0,31606094150124714  -1,0723218129203695  -0,16959228515625  0,01134829089045525  0,10652835721278747  0,3128741923607497  -0,41802454786652987  1,074287109375  0,04396228084564209  0,2096718408505112  0,27272498225414343  -1,299450381889336  -2,001875  1977,7315199218747  44,47169346811379  -0,4177208491275662  -1,2296630894941247  33,808125  1609,3466605468752  40,11666312826723  0,14072865193457007  -0,9368599123340795  -70,123125  1149,7522230468755  33,9079964469574  1,04945755356204  1,2547706800505019
104  0,31145263671875  0,016118103617429734  0,12695709360815463  0,3879385328824122  -1,5478007178683544  -0,04002685546875  0,012572818249464029  0,11212857909321793  -0,35178694661387755  -0,4710163293876706  0,8343994140625  0,004176241755485533  0,06462384819465282  0,45150519220370955  0,2826085465990782  -0,42375  1730,9459828125002  41,60463895784339  -0,3863638268253394  -1,252234672668889  -19,570625  87,48012929687494  9,353081272868046  -0,28092031558774816  -1,0665949641784367  34,795  245,64383437499993  15,673028883243976  1,1184279307970977  0,38264657961182946
105  0,39872314453125  0,006447990006208422  0,08029937737123757  -0,6270089859959117  -0,4891138345383208  -0,1750390625  0,013692990446090701  0,11701705194581985  0,7661978765553354  -0,7369412411594984  1,32435302734375  0,10573831483721728  0,3251742837882745  -0,3564136889713129  -1,597081915962237  24,105  388,7052249999999  19,71560866420309  0,5231234812800518  -0,6473178589504238  -22,675  542,5488281250001  23,292677564526585  -0,05843141133967966  -1,0418234194376683  18,955625  563,6105699218749  23,740483776070676  -0,0406901837560288  -1,035275552989852
106  0,13110595703125  0,006776091450452803  0,08231701798809772  0,2302203041331059  -1,2898109759932241  -0,05612060546875  0,01383137900233269  0,11760688331187376  -0,29659175618164746  -1,1172780754180975  1,505888671875  0,016775496339797972  0,12952025455425098  -1,2340514827809568  0,011798056385583955  16,84875  137,30517031249997  11,717728888846164  0,06064201948022072  0,07722284901363174  -85,01875  227,82894531249994  15,0940036210576  0,3814826763640075  0,34590645102236106  -32,986875  155,76408554687507  12,480548287109627  0,7952412324371673  0,14421455818907392
107  0,0675  0,0071080261230468764  0,08430911055779723  1,3680062398349373  3,0234740144160934  0,07711669921875  0,007509378975629803  0,08665667300115902  -1,4336691524140968  2,1548451709431466  1,10267822265625  0,012593581980466844  0,11222112983064662  -0,3758851723065118  -1,0961045569986805  -37,988125  1370,6245855468753  37,02194734946928  -0,26101233106847865  -1,341267569049591  -11,055625  1203,9424136718753  34,697873330679435  0,7100398267049077  -0,7847620275257103  9,254375  393,8198636718751  19,844895153965293  0,09998958745849802  -1,525432743650657
108  0,0577587890625  0,0013804449796676636  0,037154339984282636  -1,7681909414566537  3,275597375321433  -0,02936767578125  0,014181926602125172  0,1190878944398849  -0,0786487685414922  -1,5508418738896685  0,8776318359375  0,017629137730598446  0,13277476315399114  -0,5528995701936983  -0,710355918272624  -62,609375  475,020654296875  21,79496855462001  0,7924063182581792  -0,7905076049357227  -40,523125  33,386848046875  5,778135343419623  0,7067323222232599  -0,4632193211448894  -24,313125  726,9453511718747  26,961924099957603  -0,7931559067567036  -0,8260544845425852
109  0,1464892578125  0,001331723904609681  0,036492792502214474  -0,07267321281017992  -1,4473605100216167  -0,20244140625  0,0016888594627380382  0,04109573533516633  -0,14858506135798577  -0,3049599360391584  0,41498291015625  0,0018915162742137901  0,043491565552573414  0,46060568939639757  0,2804886955271333  -22,039375  492,33098867187533  22,188532819271206  -0,1010534978807585  -0,24922014154985517  3,2425  225,39252187500009  15,013078361049079  -1,3372493693404695  0,7673830429295929  -7,10375  112,26267343749998  10,595408129822088  -0,2692202496195039  -1,176067591811381
110  -0,01165283203125  0,009671501940488807  0,09834379462115954  1,1142665246796393  0,16181148516557364  -0,07222412109375  0,012639668053388597  0,11242627830444533  -0,3049830633384009  -1,5009840625137743  0,6265771484375  0,021112707161903384  0,14530212373500734  0,9561698219437117  -0,5032247871017059  62,089375  1539,5328324218756  39,23688102311237  -0,28212218896212554  -1,1824190370767897  -16,485625  323,27545742187505  17,97986255291945  -0,6629683079307003  -0,9511673156738403  7,4775  242,59715  15,575530488558005  0,6566077870186593  -0,28949315049678237
111  0,1225732421875  0,010192820811271668  0,10095950084698155  0,12990306781345126  -0,7027812770935724  -0,17189208984375  0,003841080969572068  0,0619764549613163  0,6257097149846234  0,5805936177484408  0,9542041015625  0,0063323583364486725  0,07957611662080949  0,04225891855109959  -1,5006396782256082  16,289375  747,4063792968747  27,338734047078233  0,5765665049022757  -0,6616343594611482  27,81125  638,7184359375004  25,27287945481283  -0,3116977781687216  -0,7670865645480678  11,608125  396,321082421875  19,907814606879256  -1,5493202863627071  1,7461093888403774
112  0,37433349609375  0,0009411845862865447  0,030678731823309525  1,0181706286975878  0,5487785334567827  -0,02803466796875  0,017968249386548982  0,13404569887373852  0,015643254343715718  -1,7817052486201137  1,4551611328125  0,0765375104188919  0,27665413501137465  -0,7940615135503913  -0,6663610892777956  19,873125  1538,395504296876  39,22238524486847  1,4823990386962387  0,5108254321841095  107,775  1523,1160937500003  39,027119977651445  -0,7808679730925715  -0,6011654414078551  -20,72625  257,3820921874999  16,04313224365803  0,21578382909445598  -0,9937341998141687
113  0,27568603515625  0,026622951382398622  0,16316541110909083  0,23958293144146092  -1,5030538312572146  -0,05661865234375  0,0100286675632  0,10014323523433823  0,730118522268165  -0,6371209958731878  1,35658935546875  0,08168099653124804  0,2857988742651868  -0,09278073897637507  -1,7069785642272461  -0,114375  287,73648867187495  16,962797194798828  -0,17476857711330565  -0,43065669388897065  11,445  227,3024437500001  15,076552780725443  0,20538557406770205  -0,7657062752280788  29,91375  3214,3470140624995  56,695211562022585  -0,2533704568352765  -1,612451204767035
114  0,112763671875  0,003688627815246581  0,06073407458129729  -0,33951232034903095  -0,4512094090323666  -0,044248046875  0,005117048168182369  0,07153354575429886  0,25368906247841816  -0,6367949700805431  0,88380859375  0,002395858383178709  0,04894750640409284  -0,007271752756292738  -1,3692196385287747  8,630625  469,3357886718749  21,66415908065381  -0,4089020480889385  -0,9226426839927662  9,203125  424,729326171875  20,60896227789927  -0,6385831517884905  -1,2353987109917586  27,040625  397,63229492187463  19,94071951866017  0,18256867800320248  -1,1202449930056606
115  0,237734375  0,00021621241569519045  0,014704163209621635  -0,0035769281441751523  -1,326373066853802  -0,0539501953125  0,004903866028785706  0,07002760904661608  0,5223362319102938  -1,1675890490447545  1,0856884765625  0,0069713937997817966  0,08349487289517721  -1,675162067468525  2,305586274916121  0,061875  33,91183554687499  5,823386948063385  0,2676718407705208  -0,8668483625187497  5,49375  37,76464843750001  6,145294821039916  -0,24653448816705792  -1,1855105137859652  -12,6275  126,02116562500008  11,225914912602896  -0,8839779712695678  -0,42915262554586286
116  0,3692333984375  0,002413679099082946  0,04912920820736831  -0,805841204848456  -0,46330694630158575  -0,0944677734375  0,0015028009653091428  0,038765976903841114  0,1770723342066513  -0,9162766079240061  1,2053271484375  0,009028375124931334  0,09501776215493256  0,30296924785826207  -0,9785403743220433  1,23125  134,37746093750008  11,592129266769764  -0,1246899526756372  -0,737894711074377  -30,990625  238,26143554687508  15,435719469687024  -0,42378224180101043  -1,139132130313104  -13,835  249,97957187499998  15,810742293611643  0,8432247115057369  -0,2063995290486833
117  0,21962890625  0,00890990972518921  0,09439231814713107  -0,3925879531850853  -1,1235565751643601  -0,2438720703125  0,0014968055486679066  0,03868857129266867  -0,0752579610062392  -1,1718303204403542  1,49529296875  0,0032803727149963375  0,05727453810373627  -0,1600119114126995  -1,383131415980286  -55,863125  604,5562261718748  24,587725111768165  0,14722560501638876  -1,187758217184323  -61,419375  58,19916367187499  7,628837635700146  0,023338785528723323  -1,4987904526264544  11,545  87,21570937500002  9,338935130677374  -0,4868078751534166  -1,1046483793357167
118  -0,04523193359375  0,012601705616712566  0,11225731876680721  0,05332888691857559  -0,9927644237148474  -0,1460009765625  0,01896303293704987  0,13770632860202855  -0,862548055351427  -0,6576073273197345  1,24684814453125  0,014896041268110272  0,12204933948248255  0,3716125084119531  -0,6494360132434949  -25,313125  177,35714804687504  13,317550377110463  -1,1601648726601994  0,45099612380934007  8,819375  1331,3719449218763  36,48796986572254  -0,7753142093069028  -0,500324400188163  -52,81125  590,3718734375003  24,297569290723306  0,5308048058292941  -0,7648577871777258
119  -0,11567138671875  0,012488413208723063  0,11175156915552938  0,2600361227702442  -0,9924076461692883  -0,11041259765625  0,004594247788190842  0,06778088069795819  0,09066367018930631  -0,9415847867951248  0,53465087890625  0,05057026059031485  0,22487832396723978  0,35549517078994736  -0,8757440478499285  -42,859375  529,504013671875  23,010954210372827  -0,3117932595464418  -1,3192645064062494  -33,036875  49,283366796875  7,020211307138482  1,0841133634103766  1,6696160469298524  -10,261875  899,9463042968747  29,9991050582659  0,018217907127254393  -1,1184931686020536
120  0,19258544921875  0,0037885297000408145  0,06155103329791316  -0,793442467116508  -0,6357909421284527  -0,32206787109375  0,0034642084777355155  0,05885752694206167  0,01251739399674049  -1,4996407055141259  0,6240771484375  0,034197743630409255  0,1849263194637509  -0,6807813332582434  -0,769817217879631  -8,135625  108,41750429687498  10,412372654533403  -0,31171425116589624  -0,18118269226127115  8,39  79,049775  8,890994038913759  -0,00651524724982271  -1,2707663023116662  -4,1275  193,61249375000003  13,914470660071839  -0,7020412752485538  -0,9358931673457791
121  0,2196630859375  0,0009841842889785769  0,031371711604223584  0,19869791030682582  -1,2037510839805723  -0,31775146484375  0,0012721818625926972  0,03566765849607593  -0,3262008726472819  -1,3288958881365067  0,8374169921875  0,003821455025672912  0,061817918322060246  0,013210611088985783  -0,2850733008750739  12,29875  83,43449843750003  9,134248652051246  -0,34249279174945674  -0,7903552789760262  -9,4625  37,352109375000055  6,111637209046366  0,3695957786355855  -0,6817164794117581  10,783125  40,68183242187497  6,378231135814613  -0,5084756221587237  -0,8643198126470302
122  -0,00212890625  0,004290537929534913  0,065502197898505  -0,4357559584174679  0,11494317547801947  -0,22478515625  0,004517657852172852  0,06721352432489203  1,1941849558645299  -0,05089287393856834  0,5880078125  0,009003694629669191  0,09488780021514458  0,4380215701562207  -1,0399616447430664  11,1325  886,2805687499999  29,770464704972273  -1,295181875535093  1,568053771301499  -5,561875  93,03472617187488  9,64545106108962  0,011729216928991974  -1,1648291881256319  24,43375  28,140767187499996  5,304787195307649  0,7104912378835226  -0,3205706577477243
123  -0,02794189453125  0,009452559202909468  0,09722427270445107  0,7878580579084579  -0,22674919956117234  -0,20986572265625  0,018691989058256156  0,13671864927015684  0,6179950052083117  -0,3647537828165892  1,00228271484375  0,09142655774950983  0,3023682485802863  -0,3596979905884079  -1,237172960078557  47,575625  3496,300179296872  59,12952037093547  -1,274703807842016  0,5642543330629812  0,3675  423,64478749999995  20,582633152733397  -0,5918831297186572  -0,711380487607407  9,786875  192,42430429687502  13,871708773502817  0,30244301601301143  -0,09909330600294064
124  0,15956298828125  0,004297570294141766  0,06555585629172855  -0,20359388774282122  -1,335382080264562  -0,25004150390625  0,006525070732831952  0,08077790993106936  -0,16156382329071692  -1,2990082816108002  1,216552734375  0,012198561429977417  0,11044709787938031  -0,6419107459939941  -0,8155563128682553  16,901875  597,1025980468747  24,435682884807512  -0,34451341446805306  -1,0437757593890422  48,313125  1191,246991796875  34,51444613197313  -0,2367388599407289  -1,6905757322209347  10,67375  454,02270156249983  21,307808464562935  -0,6235905499741178  -1,2921986916656
125  0,20836669921875  0,008121018952131276  0,0901166963005817  0,018887904399406394  -1,3372746342273993  -0,401435546875  0,005228029584884641  0,07230511451401374  -0,5368979744075361  -0,6965194910984596  1,33651611328125  0,010864620989561076  0,10423349264781007  -0,4337334497879325  -0,6771666756073733  -5,083125  740,7591449218751  27,216890801887622  0,06934627253532255  -1,5564775766581642  58,84125  301,5527671875002  17,365274751281657  -0,2579287900028343  -1,1761404632250747  -4,989375  311,1219574218749  17,63864953509409  0,4254444581327229  -1,1436190379177438
126  0,16128173828125  0,0038458667933940873  0,062015052958085  -0,2695550873826319  -1,546999750759922  -0,1352197265625  0,013519341969490044  0,11627270517834375  -0,4911001965632148  -0,8510704076960254  0,99766357421875  0,007066414660215376  0,08406196916689125  0,13302353335169653  -1,672133935885982  3,29  190,68965  13,809042327402723  0,2170741253637788  -1,38598300913368  7,22125  181,7204234375002  13,480371784097803  0,07991352734434976  -0,6532456778210367  -4,669375  132,90392929687502  11,5283966490087  0,4175222051747984  -1,062732137280076
127  0,14187255859375  0,0034994672477245354  0,05915629508111994  -0,06593161796733295  -0,9157697665027009  -0,164443359375  0,0011606637477874755  0,0340685154913958  0,11837907711105897  -0,24206178117278254  1,02471923828125  0,001712189167737961  0,041378607609946966  -0,04649091658891298  -1,15855132555895  4,188125  283,980663671875  16,85172583659831  0,6908863676705318  -1,2173408986029186  12,148125  303,0804417968749  17,409205662432587  -0,2326459506282249  -1,6091308606815407  -6,6075  124,31234999999998  11,14954483375891  0,7509279019384156  -0,6243781252251388
128  0,29828857421875  0,005633856409788132  0,07505901950990389  0,2691721424293987  -1,545007185168116  -0,10994384765625  0,006490590637922288  0,08056420196292077  -0,22598920261985123  -0,37786595332117967  1,15869384765625  0,01785561143755913  0,13362489078595774  0,8497646282962549  -0,3264165715126448  40,974375  82,25391367187498  9,06939433875686  -0,6396978158090778  -1,0395397476949202  -12,98125  14,119960937500004  3,7576536478898643  -0,2910043152786704  -0,7453454974811824  -7,6125  140,6314062500001  11,858811333772037  -0,8449462034619333  -0,7127417863482091
129  0,316728515625  0,002748993492126466  0,052430844854212164  -0,031985576454011386  -0,6211568159848482  -0,32310302734375  0,02373502046465874  0,15406174237836837  0,42996728765300346  -0,9013142127955209  1,7289208984375  0,008189988398551942  0,09049855467659106  -0,41912090189480194  -0,6141239045399871  2,305625  333,0585855468751  18,249892754393795  0,11912850082476006  -0,582576005972991  -109,525  1719,3926562499996  41,46555988106274  0,7299279881332489  -0,7848665844314993  3,08625  107,32615468749988  10,359833719104756  0,4619087154582659  -0,962727034997465
130  -0,19277587890625  0,09629924404025081  0,31032119495814464  -0,0718299057301545  -1,7666948414296468  0,06197021484375  0,010183619326353074  0,10091392037946537  -0,023146284221897247  -0,9483665901548859  1,045751953125  0,040338190793991056  0,20084369742162947  0,21871545341209217  0,11413493638179828  -29,0525  3964,081228125002  62,96095002559127  -0,2714139833451786  -0,8667540667572093  52,275625  9968,67422617187  99,84324827534344  0,23115203921428912  -0,8200327646246435  -55,54125  512,0647828124999  22,6288484641287  -0,6330766341906529  0,140797689311567
131  -0,30755859375  0,013969594383239747  0,1181930386411981  -0,11571754322289705  -0,23577136373123242  -0,05372802734375  0,031366756266355524  0,17710662400473767  0,4946764482461759  -0,5582754765569717  0,63881103515625  0,011234665220975888  0,10599370368552978  1,184651149413191  0,9366685113226527  -23,056875  1943,5751636718749  44,08599736505771  -0,2625528831504953  -0,9498844582824346  -6,5125  98,3934375  9,919346626668514  -0,1737454842828725  -1,220623258158844  -38,00125  540,0834359374998  23,2396952634388  0,4464373455249188  -0,37470634739711794
132  0,0049267578125  0,0029329137563705423  0,054156382415838505  -0,35808593055654725  -0,6568086788113567  -0,16427734375  0,0038084224224090584  0,06171241708448194  -0,3019535071020041  -0,9052639781104679  0,731650390625  0,005244176054000856  0,07241668353356742  0,30345401707683606  -1,5189625996599534  2,974375  491,85344492187505  22,177769160171973  0,19381684729925983  -0,690649338320855  -1,2425  114,45080312500001  10,698168213530764  -0,13271440264749157  -1,0025982562835747  1,3125  70,753828125  8,411529475963334  -0,6398310313209384  -0,42423856593178133
133  0,00161865234375  0,0008554764449596407  0,029248528936677152  0,4689141983121762  -0,9945295877380955  -0,178330078125  0,0024668089389801016  0,04966698036905507  -0,4606124649462539  -0,8567011808151186  0,99515625  0,004566579723358153  0,0675764731497446  -0,061146820342985485  -1,2595962535455605  6,918125  16,719585546875  4,088958980825682  0,16642752643898423  -0,6932345534285735  4,825625  44,86096054687498  6,697832526039672  -0,620253371061139  -0,8223213683220374  5,125625  60,83011679687496  7,799366435607123  -0,06414304452969126  -0,7880678356451489
134  -0,00223388671875  0,000909156054258347  0,03015221474880986  0,42632912798054273  -1,1724696657512952  -0,0953466796875  0,000999700331687927  0,031618038074616946  -0,34778447506810767  -1,4175893762475738  0,95343017578125  0,0009764473140239715  0,03124815697003539  0,7709746350017109  -0,17494435790109897  13,58625  48,79302968750003  6,9852007621470715  -0,12779549324102515  -1,4053726446891925  -5,616875  18,650441796874983  4,318615726928593  -0,01656407969525647  -1,143553855983451  7,036875  7,246648046874997  2,691959889536803  -0,21407223131714678  -0,9244800670416145
135  -0,04036376953125  0,001110675400495529  0,033326797033251324  -0,7157679605642687  0,4797488172174278  0,02049560546875  0,0031451182067394282  0,056081353467435396  0,41826986316255527  -0,7006757922568871  0,9093798828125  0,00158260748386383  0,039781999495548614  0,19585745452934533  -1,565957434107393  11,1425  84,77688124999997  9,207436193099573  -0,6255686790778621  -0,8570839150599818  -21,66  178,78494687500003  13,37104883227191  -0,5704302273614869  -0,32021259899591836  27,8675  184,075646875  13,567448060523393  0,7702979060153163  -0,6241755552250847
136  -0,006943359375  0,0076696661949157705  0,08757663041540117  0,01732704321904875  -0,6288305989571965  -0,04111083984375  0,03105646955370901  0,1762284584104083  0,2652288822691722  -1,003166467966672  0,8240771484375  0,017287451243400573  0,13148175251113964  0,605578956866621  -1,0179253185943347  21,73125  794,7808984374997  28,191858726190787  -0,19549730552729233  -1,523272764200989  -28,97125  269,2187828125001  16,40788782301062  -1,0089821762351938  -0,5167418646988584  66,743125  940,5694449218748  30,668704650211016  -0,693580265757706  -0,1371237598215438
137  0,08420654296875  0,005434533470869064  0,07371928832313199  0,04620878188826731  -1,4263450509064395  -0,01895751953125  0,008016694039106369  0,08953599298107084  -0,3384246988482071  -1,2384769625296144  1,166396484375  0,016281781578063967  0,12760008455351418  1,4610349965395963  1,2805689314867603  8,26875  1433,6899609375005  37,864098575530626  0,4291433441873232  -1,2762937450117364  28,17875  1199,1229703125002  34,62835500442521  -0,1595373394417205  -1,4172787484122942  -2,13625  97,62674843750001  9,880624901163895  0,23141160418243908  -1,4351567296710286
138  0,1791796875  0,014278121805191028  0,11949109508742076  0,1715599899216046  -0,9565268263881719  -0,13332275390625  0,01706571471095085  0,1306358094511258  -0,40975035763932843  -0,9721138478606521  1,38211669921875  0,011533070057630539  0,10739213219612756  0,19603556373453965  -1,2057285418250403  3,725  275,84953124999987  16,60871853124135  -0,8214454991278907  -0,2818448291922442  60,498125  78,36933242187497  8,852645504134625  -0,20080672248664683  -0,6190005957582834  0,410625  536,1258011718752  23,15439053769015  0,36775974653527116  -0,8387972135961252
139  -0,01950927734375  0,0016021240890026092  0,04002654230635728  0,6262583188398184  -0,11968234522598697  0,02387939453125  0,011726840370893473  0,10829053684830209  -0,45383930955554597  -0,4576212586722299  1,07799072265625  0,002088729590177536  0,04570262126155934  1,062112282309607  0,9515899949450137  -14,18  694,3075218749998  26,349715783571554  -0,07839739690777364  -1,4261287271759717  -0,7625  386,41132812500007  19,657347942309006  0,5347117444375207  -0,5173340355053782  -11,845  662,3737093749999  25,73662194956828  -0,8180931226929429  -0,880812819571787
140  0,011142578125  0,001315771961212158  0,03627357111192883  -0,4875468377068576  -1,0492172139237672  -0,14269775390625  0,018874807947874057  0,13738561768931296  0,18726878800808883  -0,9249383413266421  1,08530517578125  0,001774004811048507  0,04211893648999826  0,4759817424359734  -0,9284318913034575  -8,375  1198,172890625  34,614634053027345  -0,3206174491933136  -0,5645726264351905  22,17125  89,94145468749998  9,483746869644929  0,2233821079880384  -0,532605586781679  1,535  1227,3479937500001  35,03352671013868  0,04786010928580982  -0,9365232804878914
141  0,1402685546875  0,00151554753780365  0,03893003387878888  0,4090627399151794  -1,343134066113156  -0,0031201171875  0,0027690119504928594  0,05262140201945269  0,05975984474560566  -1,2104522103292767  1,0592822265625  0,004149353957176207  0,0644154791736909  0,11915003947556917  -1,2263645095054412  22,85  47,95453125  6,924921028430577  1,6455328468499868  4,243275435592146  -8,8425  80,62402187499998  8,979088031364878  -0,2806437819418938  -0,9703004096508403  -26,319375  102,495226171875  10,123992600346714  -0,2168841456083286  -1,4314016870613946
142  0,23586181640625  0,00039051067233085624  0,019761342877721043  -0,0031265621575803167  -0,68275482195136  -0,077685546875  0,0025074148178100596  0,05007409327995924  1,1302665499427254  0,097640603670615  1,3056396484375  0,013794110417366032  0,11744833084112363  0,11624321782364296  -1,5184626171050155  24,758125  173,63091054687496  13,176908231708794  0,24116819281594834  -0,8030631417095031  -42,2675  65,76250625  8,10940850185758  -0,9061988766750521  -0,00454321712060235  1,238125  33,90091367187503  5,822449112862648  -1,2204737333844204  1,116474133836765
143  0,1337890625  0,014278651475906371  0,1194933114274869  -1,490872275300035  1,3337820949319967  0,0720166015625  0,021924724555015568  0,14806999883506303  0,19153661743352124  -1,5926018626542193  1,455205078125  0,009378047561645507  0,09684031991709603  -0,6935328737445066  -0,2656522971228501  -17,088125  726,477194921875  26,953240898301544  -0,35777540145720704  -1,2664010945848203  -35,5625  1927,2859375  43,90086488327992  0,5172039831780751  -1,4162028431983447  15,081875  49,761148046875036  7,054158209657269  -0,20137137060758636  -0,7496598326084376
144  -0,22145263671875  0,010810669964551932  0,10397437167183042  0,7119304065985276  1,7331130628216798  -0,0110205078125  0,0051425087690353385  0,0717112875985039  -0,5211674832059988  -0,7241569708875608  0,9877880859375  0,010955721116065988  0,10466958066251143  -0,82059761467475  -0,20378751482302837  -9,49625  4695,310767187501  68,52233772418671  0,3953032526286244  -0,7055117208152812  -5,125625  3972,849023046876  63,03054039945141  0,830124269900379  0,08311251100492445  -21,975625  396,1112417968748  19,902543601180096  -0,19908261492313287  -0,08960316626285669
145  -0,11734619140625  0,0023412124812603  0,0483860773493812  0,4636405153960525  -0,5630458934857328  0,00224609375  0,006290292739868166  0,0793113657672604  0,6016917215906918  -0,8096390549370596  0,866416015625  0,005544669294357302  0,0744625361799966  0,037523706112902594  -1,3702538760387692  -28,431875  743,6649292968755  27,27022055827337  0,47341086960693846  -0,34929452211468703  -25,143125  174,74260117187475  13,219024214058871  -1,086762573337343  1,3574085822106907  -30,620625  81,109082421875  9,006058095630685  -0,22159749955781397  -1,246999589888814
146  0,09298828125  0,0036138657093048106  0,06011543653093447  -0,04074421450067391  -1,2152521107955254  -0,20344970703125  0,02077607519030571  0,14413908279958532  0,7695685866394139  0,03223914074132139  0,77116943359375  0,01895715510249138  0,1376849850292013  0,9870908293099537  -0,659490002041693  -28,57  771,030646875  27,76743860846729  -0,006477030419811747  -1,2446829014268663  -6,08375  604,5543921875  24,587687817025415  0,42946753150089373  -0,8741170832127336  -21,78125  1007,2538671875  31,737263070206605  0,452006199215785  -1,470887568375641
147  0,1376806640625  0,015279099726676933  0,12360865554918447  -0,2570402173124623  -1,3719247044489378  -0,09447021484375  0,04555827185511588  0,21344383770705558  0,631170508854762  -0,7170169457951916  0,87332763671875  0,01315586373209952  0,11469901364920067  -0,5526982127484452  -0,6962033399738479  -5,993125  935,3711636718749  30,58383827566244  0,6607838217256736  -0,6982235927779126  -21,7975  730,3982125000003  27,025880420441446  0,287183588632317  -0,8763465444877707  9,5675  730,5661468749994  27,028987159621785  -0,6589399866918836  -0,7892880785505523
148  0,13767333984375  0,002269913071393967  0,047643604727119114  -0,7206960966455493  -0,10199316750425247  -0,1784619140625  0,005773694491386414  0,07598483066630085  0,17199375830360297  -0,9121369710880662  0,929912109375  0,0038266631126403824  0,06186002839184915  -0,4794373623400482  -0,8204289015526025  29,35375  585,7075953125001  24,20139655706877  -0,1425234034057764  -1,2106959245003213  -2,56875  136,28597656249994  11,67415849483379  0,8835887251376442  0,0167986904673727  13,189375  154,48808242187508  12,429323490113012  0,16509879177503664  -0,7970503369994244
